DATE,TIME,ax,ay,az,gx,gy,gz,ma,mg,label
05/08/2020, 15:19:57,0.55034924,-0.79920274,9.879964999999999,0.037854444,0.019537778999999998,0.009768889000000001,9.927502924361594,0.04370486171763125,jump
05/08/2020, 15:19:57,0.55034924,-0.79920274,9.879964999999999,0.03052778,0.018316668,0.009768889000000001,9.927502924361594,0.0369171619801482,jump
05/08/2020, 15:19:57,0.57906306,-0.73459655,9.868001,0.03052778,0.018316668,0.009768889000000001,9.912234336464742,0.0369171619801482,jump
05/08/2020, 15:19:57,0.57906306,-0.73459655,9.868001,0.007326666999999999,0.02198,0.01099,9.912234336464742,0.02564333419182471,jump
05/08/2020, 15:19:57,0.60059845,-0.6771688,9.860822,0.007326666999999999,0.02198,0.01099,9.90227656351055,0.02564333419182471,jump
05/08/2020, 15:19:57,0.60059845,-0.6771688,9.860822,-0.007326666999999999,0.03052778,0.0048844446,9.90227656351055,0.0317723652438014,jump
05/08/2020, 15:19:57,0.6149554,-0.61734825,9.879964999999999,-0.007326666999999999,0.03052778,0.0048844446,9.918316089622412,0.0317723652438014,jump
05/08/2020, 15:19:57,0.6149554,-0.61734825,9.879964999999999,-0.01099,0.036633335,0.0012211112,9.918316089622412,0.03826581316124187,jump
05/08/2020, 15:19:57,0.6221339,-0.62931234,9.875179,-0.01099,0.036633335,0.0012211112,9.914749146825237,0.03826581316124187,jump
05/08/2020, 15:19:57,0.6221339,-0.62931234,9.875179,-0.01099,0.045181114,-0.009768889000000001,9.914749146825237,0.04751362318200412,jump
05/08/2020, 15:19:57,0.6149554,-0.6723832,9.891929,-0.01099,0.045181114,-0.009768889000000001,9.933807034352725,0.04751362318200412,jump
05/08/2020, 15:19:57,0.6149554,-0.6723832,9.891929,0.0,0.034191112999999995,-0.013432221999999999,9.933807034352725,0.03673495344911595,jump
05/08/2020, 15:19:57,0.6221339,-0.72023964,9.894321000000001,0.0,0.034191112999999995,-0.013432221999999999,9.939989563952476,0.03673495344911595,jump
05/08/2020, 15:19:57,0.6221339,-0.72023964,9.894321000000001,0.014653333999999999,0.03174889,-0.009768889000000001,9.939989563952476,0.03630624572501357,jump
05/08/2020, 15:19:57,0.62931234,-0.72023964,9.879964999999999,0.014653333999999999,0.03174889,-0.009768889000000001,9.92615152851388,0.03630624572501357,jump
05/08/2020, 15:19:57,0.62931234,-0.72023964,9.879964999999999,0.029306669,0.03052778,-0.019537778999999998,9.92615152851388,0.0466106314960501,jump
05/08/2020, 15:19:57,0.61734825,-0.6987042,9.860822,0.029306669,0.03052778,-0.019537778999999998,9.904802444933004,0.0466106314960501,jump
05/08/2020, 15:19:57,0.61734825,-0.6987042,9.860822,0.029306669,0.034191112999999995,-0.015874445,9.904802444933004,0.047748414206612286,jump
05/08/2020, 15:19:57,0.65084773,-0.72263247,9.856036,0.029306669,0.034191112999999995,-0.015874445,9.903900734511824,0.047748414206612286,jump
05/08/2020, 15:19:57,0.65084773,-0.72263247,9.856036,0.008547778,0.036633335,-0.014653333999999999,9.903900734511824,0.040370607611245064,jump
05/08/2020, 15:19:58,0.62452674,-0.715454,9.817751,0.0036633335999999997,0.04151778,-0.037854444,9.863576500828362,0.0563036850811511,jump
05/08/2020, 15:19:58,0.62452674,-0.715454,9.817751,0.007326666999999999,0.04029667,-0.04151778,9.863576500828362,0.058320045109454786,jump
05/08/2020, 15:19:58,0.61734825,-0.72023964,9.829716000000001,0.007326666999999999,0.04029667,-0.04151778,9.875382286909213,0.058320045109454786,jump
05/08/2020, 15:19:58,0.61734825,-0.72023964,9.829716000000001,0.009768889000000001,0.034191112999999995,-0.034191112999999995,9.875382286909213,0.04933047343673886,jump
05/08/2020, 15:19:58,0.59342,-0.74895346,9.858429,0.009768889000000001,0.034191112999999995,-0.034191112999999995,9.904630234414716,0.04933047343673886,jump
05/08/2020, 15:19:58,0.59342,-0.74895346,9.858429,0.0036633335999999997,0.03052778,-0.023201112000000003,9.904630234414716,0.03851826759942915,jump
05/08/2020, 15:19:58,0.6125626000000001,-0.7680961,9.846465,0.0036633335999999997,0.03052778,-0.023201112000000003,9.895356472370011,0.03851826759942915,jump
05/08/2020, 15:19:58,0.6125626000000001,-0.7680961,9.846465,0.008547778,0.026864445,-0.025643334,9.895356472370011,0.038109624470270304,jump
05/08/2020, 15:19:58,0.59581286,-0.79441714,9.846465,0.008547778,0.026864445,-0.025643334,9.896411811126972,0.038109624470270304,jump
05/08/2020, 15:19:58,0.59581286,-0.79441714,9.846465,0.01099,0.023201112000000003,-0.02198,9.896411811126972,0.03379633294551257,jump
05/08/2020, 15:19:58,0.5910272,-0.782453,9.793823,0.01099,0.023201112000000003,-0.02198,9.84279023187414,0.03379633294551257,jump
05/08/2020, 15:19:58,0.5910272,-0.782453,9.793823,0.0036633335999999997,0.018316668,-0.02198,9.84279023187414,0.028845116594548886,jump
05/08/2020, 15:19:58,0.5910272,-0.7369894,9.767502,0.0036633335999999997,0.018316668,-0.02198,9.813080989970137,0.028845116594548886,jump
05/08/2020, 15:19:58,0.5910272,-0.7369894,9.767502,-0.007326666999999999,0.02075889,-0.025643334,9.813080989970137,0.03379633291186252,jump
05/08/2020, 15:19:58,0.57427746,-0.70348984,9.772287,-0.007326666999999999,0.02075889,-0.025643334,9.814392134750827,0.03379633291186252,jump
05/08/2020, 15:19:58,0.57427746,-0.70348984,9.772287,-0.013432221999999999,0.025643334,-0.026864445,9.814392134750827,0.03949308247657644,jump
05/08/2020, 15:19:58,0.59581286,-0.6723832,9.757931,-0.013432221999999999,0.025643334,-0.026864445,9.799199188977063,0.03949308247657644,jump
05/08/2020, 15:19:58,0.59581286,-0.6723832,9.757931,-0.014653333999999999,0.025643334,-0.023201112000000003,9.799199188977063,0.037557853521933485,jump
05/08/2020, 15:19:58,0.5910272,-0.6987042,9.755538,-0.014653333999999999,0.025643334,-0.023201112000000003,9.798368338550713,0.037557853521933485,jump
05/08/2020, 15:19:58,0.5910272,-0.6987042,9.755538,0.008547778,0.019537778999999998,-0.02075889,9.798368338550713,0.029761061849876595,jump
05/08/2020, 15:19:59,3.8261235,0.49052864,8.788837,-0.14164889,0.4261678,-0.07693,9.598098906805069,0.4556332019045787,jump
05/08/2020, 15:19:59,3.8261235,0.49052864,8.788837,-0.04396,-0.24055889,-0.07693,9.598098906805069,0.2563577336132762,jump
05/08/2020, 15:19:59,2.0721843,-0.05264209999999999,13.739588000000001,-0.04396,-0.24055889,-0.07693,13.895070763889265,0.2563577336132762,jump
05/08/2020, 15:19:59,2.0721843,-0.05264209999999999,13.739588000000001,0.046402223,-0.039075557000000004,-0.17950334,13.895070763889265,0.18947694671219684,jump
05/08/2020, 15:19:59,-3.493521,-1.8975084,8.338987,0.046402223,-0.039075557000000004,-0.17950334,9.238178223953902,0.18947694671219684,jump
05/08/2020, 15:19:59,-3.493521,-1.8975084,8.338987,-0.03174889,0.49821335,-0.10745778,9.238178223953902,0.5106581139104761,jump
05/08/2020, 15:19:59,1.6941183999999998,-0.55513483,6.910472,-0.03174889,0.49821335,-0.10745778,7.136724309830843,0.5106581139104761,jump
05/08/2020, 15:19:59,1.6941183999999998,-0.55513483,6.910472,-0.06227667,0.0036633335999999997,-0.04029667,7.136724309830843,0.07426725464669202,jump
05/08/2020, 15:19:59,3.8691942999999998,0.148355,13.380664000000001,-0.06227667,0.0036633335999999997,-0.04029667,13.929638873638158,0.07426725464669202,jump
05/08/2020, 15:19:59,3.8691942999999998,0.148355,13.380664000000001,0.06105556,-0.19049335,-0.12211112,13.929638873638158,0.23436429211505774,jump
05/08/2020, 15:19:59,-2.8259234,-1.847259,10.803595,0.06105556,-0.19049335,-0.12211112,11.318827913319474,0.23436429211505774,jump
05/08/2020, 15:19:59,-2.8259234,-1.847259,10.803595,0.0,0.34557447,-0.1306589,11.318827913319474,0.3694502131229215,jump
05/08/2020, 15:19:59,-0.96909314,-1.2849457,6.1423760000000005,0.0,0.34557447,-0.1306589,6.349725136095466,0.3694502131229215,jump
05/08/2020, 15:19:59,-0.96909314,-1.2849457,6.1423760000000005,-0.14164889,0.28329778,-0.036633335,6.349725136095466,0.3188479879632025,jump
05/08/2020, 15:19:59,4.4051867,0.40438703,11.753544999999999,-0.14164889,0.28329778,-0.036633335,12.558463833485575,0.3188479879632025,jump
05/08/2020, 15:19:59,4.4051867,0.40438703,11.753544999999999,0.014653333999999999,-0.26986557,-0.08059334,12.558463833485575,0.2820238179166705,jump
05/08/2020, 15:19:59,-1.0863415,-1.1772687,12.827922000000001,0.014653333999999999,-0.26986557,-0.08059334,12.927555027345965,0.2820238179166705,jump
05/08/2020, 15:19:59,-1.0863415,-1.1772687,12.827922000000001,0.06960334,0.27108666,-0.13554333,12.927555027345965,0.310973629674901,jump
05/08/2020, 15:19:59,-2.7326035,-1.8161523000000002,6.4558352999999995,0.06960334,0.27108666,-0.13554333,7.241777504907313,0.310973629674901,jump
05/08/2020, 15:19:59,-2.7326035,-1.8161523000000002,6.4558352999999995,-0.10379445,0.42250445,-0.047623335999999995,7.241777504907313,0.4376657217358976,jump
05/08/2020, 15:20:00,8.683553999999999,-9.382257000000001,3.3044882000000007,5.0077767,-1.3407799999999999,-2.4922879,13.20418501861936,5.752131583956858,jump
05/08/2020, 15:20:00,8.683553999999999,-9.382257000000001,3.3044882000000007,5.4876738,-1.3993934,-2.3323224,13.20418501861936,6.1247524745817294,jump
05/08/2020, 15:20:00,8.5112705,-9.332008,3.5294135000000004,5.4876738,-1.3993934,-2.3323224,13.114300033377232,6.1247524745817294,jump
05/08/2020, 15:20:00,8.5112705,-9.332008,3.5294135000000004,5.882092500000001,-1.4775445,-2.122291,13.114300033377232,6.42543922571618,jump
05/08/2020, 15:20:00,8.405986,-9.391829,3.6131623,5.882092500000001,-1.4775445,-2.122291,13.111902330893045,6.42543922571618,jump
05/08/2020, 15:20:00,8.405986,-9.391829,3.6131623,6.1556215,-1.5508111999999998,-1.8377723000000001,13.111902330893045,6.608638175671299,jump
05/08/2020, 15:20:00,8.5112705,-9.707682,3.723232,6.1556215,-1.5508111999999998,-1.8377723000000001,13.436638932581696,6.608638175671299,jump
05/08/2020, 15:20:00,8.5112705,-9.707682,3.723232,6.35222,-1.6167512,-1.5019666999999999,13.436638932581696,6.724618064002433,jump
05/08/2020, 15:20:00,8.793623,-9.978069999999999,3.8333017999999996,6.35222,-1.6167512,-1.5019666999999999,13.841383370194528,6.724618064002433,jump
05/08/2020, 15:20:00,8.793623,-9.978069999999999,3.8333017999999996,6.5073013,-1.6680379,-1.1918045,13.841383370194528,6.822588881606602,jump
05/08/2020, 15:20:00,9.150153999999999,-9.9038925,3.9720855000000004,6.5073013,-1.6680379,-1.1918045,14.0566664015274,6.822588881606602,jump
05/08/2020, 15:20:00,9.150153999999999,-9.9038925,3.9720855000000004,6.594000299999999,-1.7144401000000002,-0.95857227,14.0566664015274,6.8803347413492855,jump
05/08/2020, 15:20:00,9.51147,-9.406186,4.132405,6.594000299999999,-1.7144401000000002,-0.95857227,14.000755873239493,6.8803347413492855,jump
05/08/2020, 15:20:00,9.51147,-9.406186,4.132405,6.5243970000000004,-1.7510734000000001,-0.79128003,14.000755873239493,6.801480490503385,jump
05/08/2020, 15:20:00,9.777073,-8.5112705,4.3238306,6.5243970000000004,-1.7510734000000001,-0.79128003,13.664859737028953,6.801480490503385,jump
05/08/2020, 15:20:00,9.777073,-8.5112705,4.3238306,6.2594156,-1.7754956000000002,-0.6667267,13.664859737028953,6.540427607330988,jump
05/08/2020, 15:20:00,9.982856,-7.2622165999999995,4.5726843,6.2594156,-1.7754956000000002,-0.6667267,13.164598016588519,6.540427607330988,jump
05/08/2020, 15:20:00,9.982856,-7.2622165999999995,4.5726843,5.770971299999999,-1.73642,-0.5556055999999999,13.164598016588519,6.052103918149594,jump
05/08/2020, 15:20:00,10.12164,-5.9007005999999995,4.8693943,5.770971299999999,-1.73642,-0.5556055999999999,12.687665999937412,6.052103918149594,jump
05/08/2020, 15:20:00,10.12164,-5.9007005999999995,4.8693943,5.0944757,-1.6008767,-0.46768558,12.687665999937412,5.360524144464152,jump
05/08/2020, 15:20:01,7.707281599999999,-2.7756743,4.0295134,0.037854444,-0.28085557,-0.24178001,9.12926806868362,0.3725189695320414,jump
05/08/2020, 15:20:01,7.724031399999999,-2.8546374,4.051048799999999,0.037854444,-0.28085557,-0.24178001,9.177178892908042,0.3725189695320414,jump
05/08/2020, 15:20:01,7.724031399999999,-2.8546374,4.051048799999999,-0.0012211112,-0.3394689,-0.24788557,9.177178892908042,0.4203425727993733,jump
05/08/2020, 15:20:01,7.826923,-2.9503502999999998,4.058227,-0.0012211112,-0.3394689,-0.24788557,9.297015417404179,0.4203425727993733,jump
05/08/2020, 15:20:01,7.826923,-2.9503502999999998,4.058227,-0.012211111,-0.36999667,-0.2515489,9.297015417404179,0.4475751187929825,jump
05/08/2020, 15:20:01,7.9011,-3.0460632000000003,4.0295134,-0.012211111,-0.36999667,-0.2515489,9.377785589040343,0.4475751187929825,jump
05/08/2020, 15:20:01,7.9011,-3.0460632000000003,4.0295134,0.0036633335999999997,-0.37366003,-0.26498112,9.377785589040343,0.4580941288831851,jump
05/08/2020, 15:20:01,7.936992599999999,-3.129812,4.0007997,0.0036633335999999997,-0.37366003,-0.26498112,9.42326765547579,0.4580941288831851,jump
05/08/2020, 15:20:01,7.936992599999999,-3.129812,4.0007997,0.03052778,-0.39075556,-0.27719223,9.42326765547579,0.4800597788388866,jump
05/08/2020, 15:20:01,7.8891363,-3.2039895,4.0007997,0.03052778,-0.39075556,-0.27719223,9.407997577959636,0.4800597788388866,jump
05/08/2020, 15:20:01,7.8891363,-3.2039895,4.0007997,0.06838222599999999,-0.42372558,-0.30649891,9.407997577959636,0.5274097807009233,jump
05/08/2020, 15:20:01,7.822137400000001,-3.2422748,4.024728,0.06838222599999999,-0.42372558,-0.30649891,9.375319326622161,0.5274097807009233,jump
05/08/2020, 15:20:01,7.822137400000001,-3.2422748,4.024728,0.10501556,-0.47501224,-0.32237336,9.375319326622161,0.5836004475201989,jump
05/08/2020, 15:20:01,7.7910304,-3.2590244,4.043870399999999,0.10501556,-0.47501224,-0.32237336,9.363454647243604,0.5836004475201989,jump
05/08/2020, 15:20:01,7.7910304,-3.2590244,4.043870399999999,0.13432223,-0.5262989,-0.32359445,9.363454647243604,0.6322549650205129,jump
05/08/2020, 15:20:01,7.8341009999999995,-3.3164523,4.1108693999999995,0.13432223,-0.5262989,-0.32359445,9.448346126431533,0.6322549650205129,jump
05/08/2020, 15:20:01,7.8341009999999995,-3.3164523,4.1108693999999995,0.14653334,-0.56171113,-0.3162678,9.448346126431533,0.6610724091842921,jump
05/08/2020, 15:20:01,7.929814299999999,-3.4049866,4.1922255,0.14653334,-0.56171113,-0.3162678,9.594302663766756,0.6610724091842921,jump
05/08/2020, 15:20:01,7.929814299999999,-3.4049866,4.1922255,0.09036223,-0.5922389,-0.29306668,9.594302663766756,0.6669335272654998,jump
05/08/2020, 15:20:01,8.111669000000001,-3.4289148000000003,4.2975097,0.09036223,-0.5922389,-0.29306668,9.799245544037964,0.6669335272654998,jump
05/08/2020, 15:20:02,-2.7828526,2.4789642999999995,-1.4787643999999998,-0.22224224,1.6216357,2.9196767999999995,4.009523314262476,3.347178868706352,jump
05/08/2020, 15:20:02,-3.400201,2.6081767000000005,-1.4811572,-0.22224224,1.6216357,2.9196767999999995,4.534068784609892,3.347178868706352,jump
05/08/2020, 15:20:02,-3.400201,2.6081767000000005,-1.4811572,-0.26376,1.3432223,2.6327157000000003,4.534068784609892,2.9673232629323323,jump
05/08/2020, 15:20:02,-3.7998023,2.7445676,-1.3686945,-0.26376,1.3432223,2.6327157000000003,4.883080358639764,2.9673232629323323,jump
05/08/2020, 15:20:02,-3.7998023,2.7445676,-1.3686945,-0.24788557,1.0635878,2.3335435,4.883080358639764,2.5764494329046275,jump
05/08/2020, 15:20:02,-4.017549,2.8522446,-1.0959128,-0.24788557,1.0635878,2.3335435,5.047477044559741,2.5764494329046275,jump
05/08/2020, 15:20:02,-4.017549,2.8522446,-1.0959128,-0.19537778,0.8327978000000001,2.0380344,5.047477044559741,2.2102735284311934,jump
05/08/2020, 15:20:02,-4.106084,2.9599216,-0.66759753,-0.19537778,0.8327978000000001,2.0380344,5.105560408114638,2.2102735284311934,jump
05/08/2020, 15:20:02,-4.106084,2.9599216,-0.66759753,-0.10867889,0.6703899999999999,1.746189,5.105560408114638,1.8736087864016624,jump
05/08/2020, 15:20:02,-4.2041892999999995,3.1250265,-0.19860429,-0.10867889,0.6703899999999999,1.746189,5.2421791023052124,1.8736087864016624,jump
05/08/2020, 15:20:02,-4.2041892999999995,3.1250265,-0.19860429,-0.008547778,0.5421733,1.4433534,5.2421791023052124,1.5418476121870457,jump
05/08/2020, 15:20:02,-4.342973000000001,3.3499517,0.11246266,-0.008547778,0.5421733,1.4433534,5.486004104468901,1.5418476121870457,jump
05/08/2020, 15:20:02,-4.342973000000001,3.3499517,0.11246266,0.081814446,0.40907225,1.1173167,5.486004104468901,1.1926568527999972,jump
05/08/2020, 15:20:02,-4.570291,3.6586258000000003,0.40438703,0.081814446,0.40907225,1.1173167,5.868273351222794,1.1926568527999972,jump
05/08/2020, 15:20:02,-4.570291,3.6586258000000003,0.40438703,0.15752333,0.27108666,0.78761667,5.868273351222794,0.8477273138767936,jump
05/08/2020, 15:20:02,-4.847859,3.9290147000000006,0.6053841,0.15752333,0.27108666,0.78761667,6.269400471355334,0.8477273138767936,jump
05/08/2020, 15:20:02,-4.847859,3.9290147000000006,0.6053841,0.20392556,0.12943779,0.47012780000000004,6.269400471355334,0.528545094901964,jump
05/08/2020, 15:20:02,-5.1182475,4.1611185,0.76570326,0.20392556,0.12943779,0.47012780000000004,6.64060737279859,0.528545094901964,jump
05/08/2020, 15:20:02,-5.1182475,4.1611185,0.76570326,0.22468445,-0.0036633335999999997,0.15508112,6.64060737279859,0.2730323708014242,jump
05/08/2020, 15:20:02,-5.369494,4.3070807,0.8781658999999999,0.22468445,-0.0036633335999999997,0.15508112,6.939278442311112,0.2730323708014242,jump
05/08/2020, 15:20:03,8.003992,-5.259424,4.113262000000001,-1.6607112000000002,1.1356333,0.024422223,10.423260429296246,2.0120191691243288,jump
05/08/2020, 15:20:03,8.003992,-5.259424,4.113262000000001,-1.3029256,1.0452712,0.05250778,10.423260429296246,1.6712163072726745,jump
05/08/2020, 15:20:03,8.090133999999999,-5.2737813,4.197011,-1.3029256,1.0452712,0.05250778,10.529859126746056,1.6712163072726745,jump
05/08/2020, 15:20:03,8.090133999999999,-5.2737813,4.197011,-1.0379444,1.0147433000000001,0.11234222,10.529859126746056,1.4559029670532118,jump
05/08/2020, 15:20:03,8.216953,-5.2426744,4.225724700000001,-1.0379444,1.0147433000000001,0.11234222,10.623591893975648,1.4559029670532118,jump
05/08/2020, 15:20:03,8.216953,-5.2426744,4.225724700000001,-0.8120389,0.9915423000000001,0.15874445,10.623591893975648,1.291419012906237,jump
05/08/2020, 15:20:03,8.274381,-5.0249276,4.158725700000001,-0.8120389,0.9915423000000001,0.15874445,10.536141277412355,1.291419012906237,jump
05/08/2020, 15:20:03,8.274381,-5.0249276,4.158725700000001,-0.6020078000000001,0.9292655999999999,0.1526389,10.536141277412355,1.1176970167339528,jump
05/08/2020, 15:20:03,8.219346,-4.694718,4.072584,-0.6020078000000001,0.9292655999999999,0.1526389,10.304560501017557,1.1176970167339528,jump
05/08/2020, 15:20:03,8.219346,-4.694718,4.072584,-0.40785113,0.8437878000000001,0.12699556,10.304560501017557,0.945752742873494,jump
05/08/2020, 15:20:03,8.059027,-4.3645086,4.0295134,-0.40785113,0.8437878000000001,0.12699556,10.011684429998544,0.945752742873494,jump
05/08/2020, 15:20:03,8.059027,-4.3645086,4.0295134,-0.21980001,0.7534255999999999,0.13188,10.011684429998544,0.7958357311275323,jump
05/08/2020, 15:20:03,7.8460655,-4.1467614,3.9649072,-0.21980001,0.7534255999999999,0.13188,9.719920950184733,0.7958357311275323,jump
05/08/2020, 15:20:03,7.8460655,-4.1467614,3.9649072,-0.035412222,0.65085226,0.16118668,9.719920950184733,0.6714490595485602,jump
05/08/2020, 15:20:03,7.6977104999999995,-4.0390844,3.8739797999999994,-0.035412222,0.65085226,0.16118668,9.517177615856848,0.6714490595485602,jump
05/08/2020, 15:20:03,7.6977104999999995,-4.0390844,3.8739797999999994,0.14653334,0.5324045000000001,0.18805112,9.517177615856848,0.5833436175719405,jump
05/08/2020, 15:20:03,7.62114,-3.8620156999999997,3.7830527000000003,0.14653334,0.5324045000000001,0.18805112,9.343897902036993,0.5833436175719405,jump
05/08/2020, 15:20:03,7.62114,-3.8620156999999997,3.7830527000000003,0.29184556,0.40174556,0.18194556,9.343897902036993,0.5288454517137284,jump
05/08/2020, 15:20:03,7.611569,-3.6323046999999997,3.7423747000000005,0.29184556,0.40174556,0.18194556,9.226862241932801,0.5288454517137284,jump
05/08/2020, 15:20:03,7.611569,-3.6323046999999997,3.7423747000000005,0.36389112,0.28818223,0.15752333,9.226862241932801,0.4901829744237121,jump
05/08/2020, 15:20:04,8.3174515,-3.0436704,4.302295,0.26986557,-0.04151778,-0.0048844446,9.846505610122373,0.2730842562047263,jump
05/08/2020, 15:20:04,8.3174515,-3.0436704,4.302295,0.30772,-0.054950003,0.0024422223,9.846505610122373,0.3125972952953328,jump
05/08/2020, 15:20:04,8.319844,-3.0005995999999997,4.321438,0.30772,-0.054950003,0.0024422223,9.843689925016973,0.3125972952953328,jump
05/08/2020, 15:20:04,8.319844,-3.0005995999999997,4.321438,0.31504667,-0.058613338,-0.0036633335999999997,9.843689925016973,0.32047362825354164,jump
05/08/2020, 15:20:04,8.322237,-2.885744,4.3238306,0.31504667,-0.058613338,-0.0036633335999999997,9.812372751166825,0.32047362825354164,jump
05/08/2020, 15:20:04,8.322237,-2.885744,4.3238306,0.30283555,-0.064718895,0.007326666999999999,9.812372751166825,0.309760533436436,jump
05/08/2020, 15:20:04,8.248059,-2.7828526,4.321438,0.30283555,-0.064718895,0.007326666999999999,9.718517150507306,0.309760533436436,jump
05/08/2020, 15:20:04,8.248059,-2.7828526,4.321438,0.28085557,-0.07326667,0.01099,9.718517150507306,0.2904627930681739,jump
05/08/2020, 15:20:04,8.224132,-2.713461,4.3525443,0.28085557,-0.07326667,0.01099,9.692463693034863,0.2904627930681739,jump
05/08/2020, 15:20:04,8.224132,-2.713461,4.3525443,0.2503278,-0.09524667,0.014653333999999999,9.692463693034863,0.26823619102953195,jump
05/08/2020, 15:20:04,8.204988499999999,-2.6464617,4.45065,0.2503278,-0.09524667,0.014653333999999999,9.702261744116246,0.26823619102953195,jump
05/08/2020, 15:20:04,8.204988499999999,-2.6464617,4.45065,0.20881,-0.117226675,0.006105555699999999,9.702261744116246,0.23954329034791505,jump
05/08/2020, 15:20:04,8.221739,-2.6081767000000005,4.493721,0.20881,-0.117226675,0.006105555699999999,9.725898590304574,0.23954329034791505,jump
05/08/2020, 15:20:04,8.221739,-2.6081767000000005,4.493721,0.16240779,-0.14775445,0.0012211112,9.725898590304574,0.21956583561514048,jump
05/08/2020, 15:20:04,8.260024000000001,-2.5316064,4.536792,0.16240779,-0.14775445,0.0012211112,9.75804840347644,0.21956583561514048,jump
05/08/2020, 15:20:04,8.260024000000001,-2.5316064,4.536792,0.09768889,-0.14897557,0.0036633335999999997,9.75804840347644,0.17818602276956794,jump
05/08/2020, 15:20:04,8.295917,-2.4837499,4.610969,0.09768889,-0.14897557,0.0036633335999999997,9.81082466760446,0.17818602276956794,jump
05/08/2020, 15:20:04,8.295917,-2.4837499,4.610969,0.03297,-0.13432223,0.006105555699999999,9.81082466760446,0.13844406496654146,jump
05/08/2020, 15:20:04,8.240881,-2.469393,4.620540599999999,0.03297,-0.13432223,0.006105555699999999,9.76521461985364,0.13844406496654146,jump
05/08/2020, 15:20:04,8.240881,-2.469393,4.620540599999999,-0.01099,-0.12089001,0.02075889,9.76521461985364,0.12315074201267973,jump
05/08/2020, 15:20:05,8.516055999999999,-2.5818555,5.003392,-0.014653333999999999,0.064718895,0.0012211112,10.208972648575006,0.06636826536384248,jump
05/08/2020, 15:20:05,8.523234,-2.5866412999999997,4.993820700000001,-0.014653333999999999,0.064718895,0.0012211112,10.2114877570832,0.06636826536384248,jump
05/08/2020, 15:20:05,8.523234,-2.5866412999999997,4.993820700000001,-0.03174889,0.07937223,0.0048844446,10.2114877570832,0.08562593252502604,jump
05/08/2020, 15:20:05,8.484949,-2.5938199,4.955536,-0.03174889,0.07937223,0.0048844446,10.16265707503798,0.08562593252502604,jump
05/08/2020, 15:20:05,8.484949,-2.5938199,4.955536,-0.042738892,0.085477784,0.008547778,10.16265707503798,0.09594857486582536,jump
05/08/2020, 15:20:05,8.49452,-2.5818555,4.943571599999999,-0.042738892,0.085477784,0.008547778,10.161778932024884,0.09594857486582536,jump
05/08/2020, 15:20:05,8.49452,-2.5818555,4.943571599999999,-0.051286668,0.09768889,0.01099,10.161778932024884,0.1108793118792794,jump
05/08/2020, 15:20:05,8.49452,-2.589034,4.8933225,-0.051286668,0.09768889,0.01099,10.139259117790827,0.1108793118792794,jump
05/08/2020, 15:20:05,8.49452,-2.589034,4.8933225,-0.06716111,0.11234222,0.0048844446,10.139259117790827,0.1309780442998382,jump
05/08/2020, 15:20:05,8.525627,-2.5459633,4.855037,-0.06716111,0.11234222,0.0048844446,10.136056109754744,0.1309780442998382,jump
05/08/2020, 15:20:05,8.525627,-2.5459633,4.855037,-0.09402556,0.13188,0.0048844446,10.136056109754744,0.16204011275727578,jump
05/08/2020, 15:20:05,8.56152,-2.5124638,4.7856455,-0.09402556,0.13188,0.0048844446,10.124944214454842,0.16204011275727578,jump
05/08/2020, 15:20:05,8.56152,-2.5124638,4.7856455,-0.11844778,0.15508112,0.008547778,10.124944214454842,0.19532817510609524,jump
05/08/2020, 15:20:05,8.5423765,-2.5339992000000002,4.682754,-0.11844778,0.15508112,0.008547778,10.065859821473992,0.19532817510609524,jump
05/08/2020, 15:20:05,8.5423765,-2.5339992000000002,4.682754,-0.13554333,0.17584,0.014653333999999999,10.065859821473992,0.22250038737136246,jump
05/08/2020, 15:20:05,8.496913000000001,-2.5459633,4.6061835,-0.13554333,0.17584,0.014653333999999999,9.994817934727203,0.22250038737136246,jump
05/08/2020, 15:20:05,8.496913000000001,-2.5459633,4.6061835,-0.13188,0.18194556,0.02198,9.994817934727203,0.2257867191712169,jump
05/08/2020, 15:20:05,8.453842,-2.57707,4.5726843,-0.13188,0.18194556,0.02198,9.950787842669326,0.2257867191712169,jump
05/08/2020, 15:20:05,8.453842,-2.57707,4.5726843,-0.11844778,0.17584,0.024422223,9.950787842669326,0.21341515679907747,jump
05/08/2020, 15:20:05,8.391629,-2.6105695,4.54397,-0.11844778,0.17584,0.024422223,9.89354225176501,0.21341515679907747,jump
05/08/2020, 15:20:06,11.598011,-2.981457,15.029319000000001,0.15141778,1.61553,0.6703899999999999,19.216747103447034,1.7556444215099556,jump
05/08/2020, 15:20:06,11.598011,-2.981457,15.029319000000001,0.006105555699999999,1.9611044999999998,0.65329444,19.216747103447034,2.06706599224848,jump
05/08/2020, 15:20:06,12.222538,-2.5172493,15.304494,0.006105555699999999,1.9611044999999998,0.65329444,19.74726596149608,2.06706599224848,jump
05/08/2020, 15:20:06,12.222538,-2.5172493,15.304494,-0.2625389,2.3384278,0.71801335,19.74726596149608,2.4602264807200864,jump
05/08/2020, 15:20:06,12.887742999999999,-2.0099709999999997,15.890735999999999,-0.2625389,2.3384278,0.71801335,20.558438202145872,2.4602264807200864,jump
05/08/2020, 15:20:06,12.887742999999999,-2.0099709999999997,15.890735999999999,-0.6935911,2.8036711,0.88896894,20.558438202145872,3.0219043964402483,jump
05/08/2020, 15:20:06,13.708480999999999,-1.5601203000000001,16.220945,-0.6935911,2.8036711,0.88896894,21.2949639728962,3.0219043964402483,jump
05/08/2020, 15:20:06,13.708480999999999,-1.5601203000000001,16.220945,-1.1844778,3.2762412999999997,1.1173167,21.2949639728962,3.658570951132485,jump
05/08/2020, 15:20:06,14.634503,-1.282553,16.252052,-1.1844778,3.2762412999999997,1.1173167,21.90759765492193,3.658570951132485,jump
05/08/2020, 15:20:06,14.634503,-1.282553,16.252052,-1.724209,3.7585802000000004,1.3676445,21.90759765492193,4.355487721961813,jump
05/08/2020, 15:20:06,15.63231,-1.3974084,16.151552,-1.724209,3.7585802000000004,1.3676445,22.52097914961628,4.355487721961813,jump
05/08/2020, 15:20:06,15.63231,-1.3974084,16.151552,-2.2407388999999998,4.3129644,1.6362889999999999,22.52097914961628,5.128353988017742,jump
05/08/2020, 15:20:06,16.421942,-2.132005,15.696917000000001,-2.2407388999999998,4.3129644,1.6362889999999999,22.81707269615352,5.128353988017742,jump
05/08/2020, 15:20:06,16.421942,-2.132005,15.696917000000001,-2.7169724,4.916193499999999,1.9818633999999997,22.81707269615352,5.9563982066289425,jump
05/08/2020, 15:20:06,16.797615,-3.4313076000000002,15.254245000000001,-2.7169724,4.916193499999999,1.9818633999999997,22.948327335439515,5.9563982066289425,jump
05/08/2020, 15:20:06,16.797615,-3.4313076000000002,15.254245000000001,-3.1394767999999997,5.4974422,2.4092523999999997,22.948327335439515,6.773675724600543,jump
05/08/2020, 15:20:06,16.682760000000002,-4.7425747000000005,14.670395999999998,-3.1394767999999997,5.4974422,2.4092523999999997,22.716228082942024,6.773675724600543,jump
05/08/2020, 15:20:06,16.682760000000002,-4.7425747000000005,14.670395999999998,-3.4533023999999997,5.966349,2.7877967,22.716228082942024,7.436022449642258,jump
05/08/2020, 15:20:06,16.187445,-5.797809,13.878371,-3.4533023999999997,5.966349,2.7877967,22.09654145717783,7.436022449642258,jump
05/08/2020, 15:20:06,16.187445,-5.797809,13.878371,-3.6389112,6.3277980000000005,3.0747578,22.09654145717783,7.920658862472121,jump
05/08/2020, 15:20:07,14.658431,1.3495518999999998,8.915657000000001,2.2224223999999997,-2.0758889,-0.18316667,17.209875996971846,3.0466417232810263,jump
05/08/2020, 15:20:07,13.887942,2.0458634,9.322436999999999,2.2224223999999997,-2.0758889,-0.18316667,16.851360054605305,3.0466417232810263,jump
05/08/2020, 15:20:07,13.887942,2.0458634,9.322436999999999,1.4885344999999999,-1.6826912,0.04396,16.851360054605305,2.2470240368351546,jump
05/08/2020, 15:20:07,13.081561,2.333002,9.734002,1.4885344999999999,-1.6826912,0.04396,16.471822498144974,2.2470240368351546,jump
05/08/2020, 15:20:07,13.081561,2.333002,9.734002,0.8633255999999999,-1.4225945,0.28329778,16.471822498144974,1.6880059125902622,jump
05/08/2020, 15:20:07,12.452249,2.5052852999999997,10.224530999999999,0.8633255999999999,-1.4225945,0.28329778,16.305704109382468,1.6880059125902622,jump
05/08/2020, 15:20:07,12.452249,2.5052852999999997,10.224530999999999,0.24666445,-1.2284378,0.47501224,16.305704109382468,1.3399773744715873,jump
05/08/2020, 15:20:07,12.062219,2.6249263,10.750952,0.24666445,-1.2284378,0.47501224,16.369799060306242,1.3399773744715873,jump
05/08/2020, 15:20:07,12.062219,2.6249263,10.750952,-0.36877558,-1.00009,0.6191034000000001,16.369799060306242,1.2326655771879902,jump
05/08/2020, 15:20:07,11.770294,2.5363919999999998,11.143375,-0.36877558,-1.00009,0.6191034000000001,16.405728413633476,1.2326655771879902,jump
05/08/2020, 15:20:07,11.770294,2.5363919999999998,11.143375,-0.9549089,-0.75953114,0.72900337,16.405728413633476,1.4213319414466277,jump
05/08/2020, 15:20:07,11.478371000000001,2.1415763,11.30848,-0.9549089,-0.75953114,0.72900337,16.25487828368016,1.4213319414466277,jump
05/08/2020, 15:20:07,11.478371000000001,2.1415763,11.30848,-1.4604489999999999,-0.5336255999999999,0.81936556,16.25487828368016,1.7575629236526302,jump
05/08/2020, 15:20:07,11.231910000000001,1.4859428,11.406586,-1.4604489999999999,-0.5336255999999999,0.81936556,16.077127230325047,1.7575629236526302,jump
05/08/2020, 15:20:07,11.231910000000001,1.4859428,11.406586,-1.8353301,-0.31016225,0.9085066999999999,16.077127230325047,2.07123675822144,jump
05/08/2020, 15:20:07,10.966306,0.6652047,11.511869,-1.8353301,-0.31016225,0.9085066999999999,15.913060563809132,2.07123675822144,jump
05/08/2020, 15:20:07,10.966306,0.6652047,11.511869,-2.0636778000000002,-0.09646778,0.98910004,15.913060563809132,2.290500148690002,jump
05/08/2020, 15:20:07,10.674382000000001,-0.20338993,11.600404,-2.0636778000000002,-0.09646778,0.98910004,15.765569162403926,2.290500148690002,jump
05/08/2020, 15:20:07,10.674382000000001,-0.20338993,11.600404,-2.1589245999999997,0.09036223,1.0306178,15.765569162403926,2.3940120698946017,jump
05/08/2020, 15:20:07,10.423136,-1.0193424,11.796616,-2.1589245999999997,0.09036223,1.0306178,15.774693582457356,2.3940120698946017,jump
05/08/2020, 15:20:08,8.348558,-1.7635102999999999,4.895715,-0.48478112,0.5604899999999999,-0.05250778,9.837500912890839,0.7429124116766143,jump
05/08/2020, 15:20:08,8.348558,-1.7635102999999999,4.895715,-0.65329444,0.5788066999999999,-0.024422223,9.837500912890839,0.8731593609748288,jump
05/08/2020, 15:20:08,8.449057,-1.8783657999999999,4.85743,-0.65329444,0.5788066999999999,-0.024422223,9.925192279803694,0.8731593609748288,jump
05/08/2020, 15:20:08,8.449057,-1.8783657999999999,4.85743,-0.77906895,0.60933447,-0.008547778,9.925192279803694,0.9890955380341886,jump
05/08/2020, 15:20:08,8.537591,-2.0841484,4.7976093,-0.77906895,0.60933447,-0.008547778,10.01255160331294,0.9890955380341886,jump
05/08/2020, 15:20:08,8.537591,-2.0841484,4.7976093,-0.85966223,0.6423045000000001,-0.006105555699999999,10.01255160331294,1.0731316232634918,jump
05/08/2020, 15:20:08,8.580662,-2.254039,4.7449675000000004,-0.85966223,0.6423045000000001,-0.006105555699999999,10.060972354194572,1.0731316232634918,jump
05/08/2020, 15:20:08,8.580662,-2.254039,4.7449675000000004,-0.8950745000000001,0.65940005,-0.006105555699999999,10.060972354194572,1.1117571835186455,jump
05/08/2020, 15:20:08,8.5423765,-2.4670002,4.6564326,-0.8950745000000001,0.65940005,-0.006105555699999999,10.036964263089029,1.1117571835186455,jump
05/08/2020, 15:20:08,8.5423765,-2.4670002,4.6564326,-0.89263225,0.65451556,0.012211111,10.036964263089029,1.106947181200428,jump
05/08/2020, 15:20:08,8.489735000000001,-2.6560330000000003,4.56072,-0.89263225,0.65451556,0.012211111,9.996513019185018,1.106947181200428,jump
05/08/2020, 15:20:08,8.489735000000001,-2.6560330000000003,4.56072,-0.8498934000000001,0.6349778,0.047623335999999995,9.996513019185018,1.0619715566879653,jump
05/08/2020, 15:20:08,8.432307000000002,-2.8115666,4.4961139999999995,-0.8498934000000001,0.6349778,0.047623335999999995,9.961111947994764,1.0619715566879653,jump
05/08/2020, 15:20:08,8.432307000000002,-2.8115666,4.4961139999999995,-0.7863956,0.60445005,0.06960334,9.961111947994764,0.9942949957459509,jump
05/08/2020, 15:20:08,8.441877999999999,-2.9072795,4.4243293,-0.7863956,0.60445005,0.06960334,9.964550826598916,0.9942949957459509,jump
05/08/2020, 15:20:08,8.441877999999999,-2.9072795,4.4243293,-0.7070234000000001,0.5678167,0.09402556,9.964550826598916,0.9116680563221642,jump
05/08/2020, 15:20:08,8.482556,-2.9742785,4.3405805,-0.7070234000000001,0.5678167,0.09402556,9.982020495422848,0.9116680563221642,jump
05/08/2020, 15:20:08,8.482556,-2.9742785,4.3405805,-0.6191034000000001,0.5360678000000001,0.11600556,9.982020495422848,0.8271124135672321,jump
05/08/2020, 15:20:08,8.568698,-2.9958138,4.3238306,-0.6191034000000001,0.5360678000000001,0.11600556,10.05450127581081,0.8271124135672321,jump
05/08/2020, 15:20:08,8.568698,-2.9958138,4.3238306,-0.5336255999999999,0.51653004,0.14042778,10.05450127581081,0.7558303547773838,jump
05/08/2020, 15:20:09,8.260024000000001,-2.6656044,4.579862599999999,0.070824444,-0.05617111,-0.106236674,9.813693779669762,0.13949023831697596,jump
05/08/2020, 15:20:09,8.260024000000001,-2.6656044,4.579862599999999,0.08914111599999999,-0.058613338,-0.10501556,9.813693779669762,0.1496994651679896,jump
05/08/2020, 15:20:09,8.286344999999999,-2.6823542000000002,4.6061835,0.08914111599999999,-0.058613338,-0.10501556,9.852687778444622,0.1496994651679896,jump
05/08/2020, 15:20:09,8.286344999999999,-2.6823542000000002,4.6061835,0.10501556,-0.07204556,-0.10501556,9.852687778444622,0.16506695129617774,jump
05/08/2020, 15:20:09,8.30788,-2.6488547000000002,4.6325045,0.10501556,-0.07204556,-0.10501556,9.874077463893293,0.16506695129617774,jump
05/08/2020, 15:20:09,8.30788,-2.6488547000000002,4.6325045,0.11356334,-0.08303556,-0.09768889,9.874077463893293,0.17127362544840807,jump
05/08/2020, 15:20:09,8.338987,-2.6416762,4.644469,0.11356334,-0.08303556,-0.09768889,9.903951403329806,0.17127362544840807,jump
05/08/2020, 15:20:09,8.338987,-2.6416762,4.644469,0.106236674,-0.081814446,-0.09280445,9.903951403329806,0.16307206912880892,jump
05/08/2020, 15:20:09,8.379665,-2.6368906,4.646861599999999,0.106236674,-0.081814446,-0.09280445,9.938073575215501,0.16307206912880892,jump
05/08/2020, 15:20:09,8.379665,-2.6368906,4.646861599999999,0.08792,-0.070824444,-0.091583334,9.938073575215501,0.1453737796978017,jump
05/08/2020, 15:20:09,8.384451,-2.6201408,4.625326,0.08792,-0.070824444,-0.091583334,9.927627960552057,0.1453737796978017,jump
05/08/2020, 15:20:09,8.384451,-2.6201408,4.625326,0.064718895,-0.05006556,-0.08425667,9.927627960552057,0.1174490618717202,jump
05/08/2020, 15:20:09,8.394022,-2.5842485,4.5894337,0.064718895,-0.05006556,-0.08425667,9.909634053597737,0.1174490618717202,jump
05/08/2020, 15:20:09,8.394022,-2.5842485,4.5894337,0.047623335999999995,-0.037854444,-0.07937223,9.909634053597737,0.10000445769852613,jump
05/08/2020, 15:20:09,8.310273,-2.5698915,4.6061835,0.047623335999999995,-0.037854444,-0.07937223,9.842860811211537,0.10000445769852613,jump
05/08/2020, 15:20:09,8.310273,-2.5698915,4.6061835,0.03052778,-0.039075557000000004,-0.08059334,9.842860811211537,0.09462627000884674,jump
05/08/2020, 15:20:09,8.243274000000001,-2.5938199,4.5846480000000005,0.03052778,-0.039075557000000004,-0.08059334,9.782559062783552,0.09462627000884674,jump
05/08/2020, 15:20:09,8.243274000000001,-2.5938199,4.5846480000000005,0.02075889,-0.046402223,-0.07570889,9.782559062783552,0.09119174101216647,jump
05/08/2020, 15:20:09,8.216953,-2.6105695,4.6013980000000005,0.02075889,-0.046402223,-0.07570889,9.772730306008148,0.09119174101216647,jump
05/08/2020, 15:20:09,8.216953,-2.6105695,4.6013980000000005,0.018316668,-0.06227667,-0.08059334,9.772730306008148,0.10348512096051952,jump
05/08/2020, 15:20:10,8.41795,-2.7182465000000002,4.4554358,0.024422223,-0.0048844446,-0.0012211112,9.904627621538683,0.024935795072704124,jump
05/08/2020, 15:20:10,8.41795,-2.7182465000000002,4.4554358,0.024422223,-0.008547778,-0.0048844446,9.904627621538683,0.026331868074714427,jump
05/08/2020, 15:20:10,8.394022,-2.7278178,4.4674,0.024422223,-0.008547778,-0.0048844446,9.892333312317415,0.026331868074714427,jump
05/08/2020, 15:20:10,8.394022,-2.7278178,4.4674,0.028085556,-0.012211111,-0.0036633335999999997,9.892333312317415,0.030843633106472063,jump
05/08/2020, 15:20:10,8.384451,-2.7230322,4.436293,0.028085556,-0.012211111,-0.0036633335999999997,9.868871179361117,0.030843633106472063,jump
05/08/2020, 15:20:10,8.384451,-2.7230322,4.436293,0.03174889,-0.018316668,-0.012211111,9.868871179361117,0.03863422863461049,jump
05/08/2020, 15:20:10,8.386844,-2.737389,4.429115,0.03174889,-0.018316668,-0.012211111,9.871651535006306,0.03863422863461049,jump
05/08/2020, 15:20:10,8.386844,-2.737389,4.429115,0.04029667,-0.023201112000000003,-0.017095556,9.871651535006306,0.049541611326554935,jump
05/08/2020, 15:20:10,8.367701,-2.7302105,4.414757700000001,0.04029667,-0.023201112000000003,-0.017095556,9.846956298880563,0.049541611326554935,jump
05/08/2020, 15:20:10,8.367701,-2.7302105,4.414757700000001,0.05006556,-0.026864445,-0.015874445,9.846956298880563,0.05899369926231469,jump
05/08/2020, 15:20:10,8.348558,-2.7756743,4.426722,0.05006556,-0.026864445,-0.015874445,9.84878997416089,0.05899369926231469,jump
05/08/2020, 15:20:10,8.348558,-2.7756743,4.426722,0.059834447,-0.029306669,-0.02198,9.84878997416089,0.07015812343062297,jump
05/08/2020, 15:20:10,8.3581295,-2.806781,4.45065,0.059834447,-0.029306669,-0.02198,9.876468801213825,0.07015812343062297,jump
05/08/2020, 15:20:10,8.3581295,-2.806781,4.45065,0.07204556,-0.036633335,-0.019537778999999998,9.876468801213825,0.08315219985701726,jump
05/08/2020, 15:20:10,8.334201,-2.7996025,4.436293,0.07204556,-0.036633335,-0.019537778999999998,9.847709117223523,0.08315219985701726,jump
05/08/2020, 15:20:10,8.334201,-2.7996025,4.436293,0.08792,-0.042738892,-0.024422223,9.847709117223523,0.1007620202717759,jump
05/08/2020, 15:20:10,8.329415,-2.7756743,4.4315076,0.08792,-0.042738892,-0.024422223,9.834723542225834,0.1007620202717759,jump
05/08/2020, 15:20:10,8.329415,-2.7756743,4.4315076,0.091583334,-0.045181114,-0.02075889,9.834723542225834,0.1042102280527508,jump
05/08/2020, 15:20:10,8.348558,-2.7804599999999997,4.4171505,0.091583334,-0.045181114,-0.02075889,9.845841937418246,0.1042102280527508,jump
05/08/2020, 15:20:10,8.348558,-2.7804599999999997,4.4171505,0.08914111599999999,-0.04029667,-0.015874445,9.845841937418246,0.09910579254450523,jump
05/08/2020, 15:20:11,-3.2877383,-0.016749758,1.1485549,-0.6557367,0.46035892,0.63742,3.4826257684705744,1.0238286905449876,jump
05/08/2020, 15:20:11,-3.2877383,-0.016749758,1.1485549,-0.74732006,0.24422224,0.42983112,3.4826257684705744,0.8960393726709752,jump
05/08/2020, 15:20:11,-3.3116665000000003,0.16031912,1.5074782,-0.74732006,0.24422224,0.42983112,3.6421597696499495,0.8960393726709752,jump
05/08/2020, 15:20:11,-3.3116665000000003,0.16031912,1.5074782,-0.8498934000000001,0.05617111,0.21857889999999996,3.6421597696499495,0.8793467505711406,jump
05/08/2020, 15:20:11,-3.3690943999999994,0.31585258,1.6534404999999999,-0.8498934000000001,0.05617111,0.21857889999999996,3.7662216007307134,0.8793467505711406,jump
05/08/2020, 15:20:11,-3.3690943999999994,0.31585258,1.6534404999999999,-0.9536878000000001,-0.11844778,-0.015874445,3.7662216007307134,0.9611463311738316,jump
05/08/2020, 15:20:11,-3.3978080000000004,0.46660042,1.6366907,-0.9536878000000001,-0.11844778,-0.015874445,3.800206866615943,0.9611463311738316,jump
05/08/2020, 15:20:11,-3.3978080000000004,0.46660042,1.6366907,-1.0403867,-0.28329778,-0.26986557,3.800206866615943,1.1115257509327496,jump
05/08/2020, 15:20:11,-3.455236,0.57906306,1.5266209,-1.0403867,-0.28329778,-0.26986557,3.8215887816741287,1.1115257509327496,jump
05/08/2020, 15:20:11,-3.455236,0.57906306,1.5266209,-1.1234223,-0.46280113,-0.54339445,3.8215887816741287,1.330992109151191,jump
05/08/2020, 15:20:11,-3.4719856,0.5982057,1.4548361,-1.1234223,-0.46280113,-0.54339445,3.8117033023884144,1.330992109151191,jump
05/08/2020, 15:20:11,-3.4719856,0.5982057,1.4548361,-1.1954678,-0.65085226,-0.81570226,3.8117033023884144,1.5868592175412228,jump
05/08/2020, 15:20:11,-3.4456646,0.4354937,1.4117653000000001,-1.1954678,-0.65085226,-0.81570226,3.7490453420452208,1.5868592175412228,jump
05/08/2020, 15:20:11,-3.4456646,0.4354937,1.4117653000000001,-1.2137845,-0.81936556,-1.0672511999999998,3.7490453420452208,1.812086577493085,jump
05/08/2020, 15:20:11,-3.3475589999999995,0.12203395,1.5218352,-1.2137845,-0.81936556,-1.0672511999999998,3.679269734409922,1.812086577493085,jump
05/08/2020, 15:20:11,-3.3475589999999995,0.12203395,1.5218352,-1.1405178,-0.94880337,-1.2833878,3.679269734409922,1.9616556636414084,jump
05/08/2020, 15:20:11,-3.1657043,-0.34456646,1.7635102999999999,-1.1405178,-0.94880337,-1.2833878,3.6401068927853912,1.9616556636414084,jump
05/08/2020, 15:20:11,-3.1657043,-0.34456646,1.7635102999999999,-1.0123011999999998,-1.0672511999999998,-1.4909767,3.6401068927853912,2.0944666056593944,jump
05/08/2020, 15:20:11,-2.993421,-0.8542377,2.0817556,-1.0123011999999998,-1.0672511999999998,-1.4909767,3.7448629203178565,2.0944666056593944,jump
05/08/2020, 15:20:11,-2.993421,-0.8542377,2.0817556,-0.8450089,-1.1844778,-1.7205456000000001,3.7448629203178565,2.2532876120705523,jump
05/08/2020, 15:20:12,8.348558,-2.428715,4.058227,0.29795113,-0.006105555699999999,-0.16973445,9.595118091245233,0.34296054847378377,jump
05/08/2020, 15:20:12,8.348558,-2.428715,4.058227,0.16118668,0.012211111,-0.1965989,9.595118091245233,0.2545218763039753,jump
05/08/2020, 15:20:12,8.219346,-2.3186452,3.9338005,0.16118668,0.012211111,-0.1965989,9.402582157339847,0.2545218763039753,jump
05/08/2020, 15:20:12,8.219346,-2.3186452,3.9338005,0.035412222,0.0,-0.20758890000000002,9.402582157339847,0.2105876902489492,jump
05/08/2020, 15:20:12,8.078169,-2.2827528,3.8476589,0.035412222,0.0,-0.20758890000000002,9.234297547971014,0.2105876902489492,jump
05/08/2020, 15:20:12,8.078169,-2.2827528,3.8476589,-0.046402223,-0.046402223,-0.21735778,9.234297547971014,0.2270478785661747,jump
05/08/2020, 15:20:12,8.025527,-2.4119651,3.792624,-0.046402223,-0.046402223,-0.21735778,9.198405090667533,0.2270478785661747,jump
05/08/2020, 15:20:12,8.025527,-2.4119651,3.792624,-0.07326667,-0.10745778,-0.22224224,9.198405090667533,0.25750105012294605,jump
05/08/2020, 15:20:12,8.142776,-2.5698915,3.7950168,-0.07326667,-0.10745778,-0.22224224,9.344050928433546,0.25750105012294605,jump
05/08/2020, 15:20:12,8.142776,-2.5698915,3.7950168,-0.054950003,-0.15630223,-0.21980001,9.344050928433546,0.275248858267939,jump
05/08/2020, 15:20:12,8.329415,-2.6488547000000002,3.8476589,-0.054950003,-0.15630223,-0.21980001,9.549872762996985,0.275248858267939,jump
05/08/2020, 15:20:12,8.329415,-2.6488547000000002,3.8476589,-0.02198,-0.1856089,-0.20270446,9.549872762996985,0.27572246861100697,jump
05/08/2020, 15:20:12,8.49452,-2.6632116000000003,3.9026937000000004,-0.02198,-0.1856089,-0.20270446,9.72011253277387,0.27572246861100697,jump
05/08/2020, 15:20:12,8.49452,-2.6632116000000003,3.9026937000000004,0.0012211112,-0.18316667,-0.18316667,9.72011253277387,0.2590396639750668,jump
05/08/2020, 15:20:12,8.592627,-2.658426,3.9840497999999998,0.0012211112,-0.18316667,-0.18316667,9.837332627769642,0.2590396639750668,jump
05/08/2020, 15:20:12,8.592627,-2.658426,3.9840497999999998,0.0,-0.16729222,-0.16851334,9.837332627769642,0.2374519621941217,jump
05/08/2020, 15:20:12,8.556734,-2.6153553,4.0007997,0.0,-0.16729222,-0.16851334,9.801233554513876,0.2374519621941217,jump
05/08/2020, 15:20:12,8.556734,-2.6153553,4.0007997,-0.013432221999999999,-0.16607112,-0.15019667,9.801233554513876,0.2243191489842612,jump
05/08/2020, 15:20:12,8.496913000000001,-2.6249263,4.024728,-0.013432221999999999,-0.16607112,-0.15019667,9.761465159120258,0.2243191489842612,jump
05/08/2020, 15:20:12,8.496913000000001,-2.6249263,4.024728,-0.013432221999999999,-0.18072446,-0.14409111,9.761465159120258,0.2315253834307183,jump
05/08/2020, 15:20:13,8.595019,-2.5507487999999996,4.6085763,0.13432223,-0.09768889,-0.025643334,10.080657345863768,0.16805701533087394,jump
05/08/2020, 15:20:13,8.597412,-2.5459633,4.6229334,0.13432223,-0.09768889,-0.025643334,10.088059136752332,0.16805701533087394,jump
05/08/2020, 15:20:13,8.597412,-2.5459633,4.6229334,0.09646778,-0.07693,-0.028085556,10.088059136752332,0.12654270334620335,jump
05/08/2020, 15:20:13,8.496913000000001,-2.5220351,4.6372905,0.09646778,-0.07693,-0.028085556,10.00313220532069,0.12654270334620335,jump
05/08/2020, 15:20:13,8.496913000000001,-2.5220351,4.6372905,0.06960334,-0.058613338,-0.019537778999999998,10.00313220532069,0.0930691834641732,jump
05/08/2020, 15:20:13,8.425129,-2.498107,4.5966125,0.06960334,-0.058613338,-0.019537778999999998,9.917266862119408,0.0930691834641732,jump
05/08/2020, 15:20:13,8.425129,-2.498107,4.5966125,0.048844445,-0.054950003,-0.02075889,9.917266862119408,0.07639511854561433,jump
05/08/2020, 15:20:13,8.394022,-2.507678,4.5846480000000005,0.048844445,-0.054950003,-0.02075889,9.887722323296009,0.07639511854561433,jump
05/08/2020, 15:20:13,8.394022,-2.507678,4.5846480000000005,0.036633335,-0.05617111,-0.02198,9.887722323296009,0.07057135015582867,jump
05/08/2020, 15:20:13,8.382058,-2.5052852999999997,4.5894337,0.036633335,-0.05617111,-0.02198,9.879182880380387,0.07057135015582867,jump
05/08/2020, 15:20:13,8.382058,-2.5052852999999997,4.5894337,0.035412222,-0.05006556,-0.028085556,9.879182880380387,0.06744912204635757,jump
05/08/2020, 15:20:13,8.405986,-2.524428,4.6372905,0.035412222,-0.05006556,-0.028085556,9.926620621449176,0.06744912204635757,jump
05/08/2020, 15:20:13,8.405986,-2.524428,4.6372905,0.02198,-0.04396,-0.019537778999999998,9.926620621449176,0.052889762114499146,jump
05/08/2020, 15:20:13,8.453842,-2.5220351,4.644469,0.02198,-0.04396,-0.019537778999999998,9.969914681841212,0.052889762114499146,jump
05/08/2020, 15:20:13,8.453842,-2.5220351,4.644469,0.009768889000000001,-0.02075889,-0.02198,9.969914681841212,0.03177236416999237,jump
05/08/2020, 15:20:13,8.456235000000001,-2.510071,4.666004,0.009768889000000001,-0.02075889,-0.02198,9.9789759425676,0.03177236416999237,jump
05/08/2020, 15:20:13,8.456235000000001,-2.510071,4.666004,-0.008547778,0.0036633335999999997,-0.025643334,9.9789759425676,0.02727755659732513,jump
05/08/2020, 15:20:13,8.41795,-2.5603201,4.6492543,-0.008547778,0.0036633335999999997,-0.025643334,9.951516553835043,0.02727755659732513,jump
05/08/2020, 15:20:13,8.41795,-2.5603201,4.6492543,-0.023201112000000003,0.012211111,-0.034191112999999995,9.951516553835043,0.04308636711430603,jump
05/08/2020, 15:20:13,8.374879,-2.5722845000000003,4.618148000000001,-0.023201112000000003,0.012211111,-0.034191112999999995,9.903662616390136,0.04308636711430603,jump
05/08/2020, 15:20:14,8.427522,-2.347359,4.24726,-0.04029667,0.03174889,-0.0048844446,9.724835957742496,0.05153320762815263,jump
05/08/2020, 15:20:14,8.427522,-2.347359,4.24726,-0.037854444,0.028085556,-0.0024422223,9.724835957742496,0.04719874836698559,jump
05/08/2020, 15:20:14,8.389236,-2.359323,4.2711883,-0.037854444,0.028085556,-0.0024422223,9.7050884847736,0.04719874836698559,jump
05/08/2020, 15:20:14,8.389236,-2.359323,4.2711883,-0.03052778,0.019537778999999998,-0.01099,9.7050884847736,0.03787413682516203,jump
05/08/2020, 15:20:14,8.382058,-2.3545375,4.2424745999999995,-0.03052778,0.019537778999999998,-0.01099,9.685108975062217,0.03787413682516203,jump
05/08/2020, 15:20:14,8.382058,-2.3545375,4.2424745999999995,-0.023201112000000003,0.006105555699999999,-0.017095556,9.685108975062217,0.02945891114768448,jump
05/08/2020, 15:20:14,8.415557000000002,-2.3641088,4.26401,-0.023201112000000003,0.006105555699999999,-0.017095556,9.725861882825622,0.02945891114768448,jump
05/08/2020, 15:20:14,8.415557000000002,-2.3641088,4.26401,-0.012211111,-0.0012211112,-0.025643334,9.725861882825622,0.02842855820232589,jump
05/08/2020, 15:20:14,8.427522,-2.3545375,4.2831526,-0.012211111,-0.0012211112,-0.025643334,9.742297721916005,0.02842855820232589,jump
05/08/2020, 15:20:14,8.427522,-2.3545375,4.2831526,-0.008547778,0.0,-0.024422223,9.742297721916005,0.02587488119461556,jump
05/08/2020, 15:20:14,8.441877999999999,-2.361716,4.273581,-0.008547778,0.0,-0.024422223,9.75225650646499,0.02587488119461556,jump
05/08/2020, 15:20:14,8.441877999999999,-2.361716,4.273581,-0.0036633335999999997,0.0024422223,-0.025643334,9.75225650646499,0.026018551668461225,jump
05/08/2020, 15:20:14,8.439486,-2.349752,4.2687955,-0.0036633335999999997,0.0024422223,-0.025643334,9.745197048208725,0.026018551668461225,jump
05/08/2020, 15:20:14,8.439486,-2.349752,4.2687955,-0.008547778,0.0,-0.03052778,9.745197048208725,0.03170189039100947,jump
05/08/2020, 15:20:14,8.41795,-2.3186452,4.24726,-0.008547778,0.0,-0.03052778,9.709645246018177,0.03170189039100947,jump
05/08/2020, 15:20:14,8.41795,-2.3186452,4.24726,-0.008547778,-0.0048844446,-0.026864445,9.709645246018177,0.028611548520319288,jump
05/08/2020, 15:20:14,8.410771,-2.3569303,4.2352962,-0.008547778,-0.0048844446,-0.026864445,9.7074162158901,0.028611548520319288,jump
05/08/2020, 15:20:14,8.410771,-2.3569303,4.2352962,-0.007326666999999999,-0.015874445,-0.034191112999999995,9.7074162158901,0.03840195666891963,jump
05/08/2020, 15:20:14,8.429914,-2.3904297000000003,4.23051,-0.007326666999999999,-0.015874445,-0.034191112999999995,9.730099136855998,0.03840195666891963,jump
05/08/2020, 15:20:14,8.429914,-2.3904297000000003,4.23051,0.0036633335999999997,-0.028085556,-0.029306669,9.730099136855998,0.04075658594232962,jump
05/08/2020, 15:20:15,10.449456,-4.426722,11.487942,-0.83890337,1.0342811,0.49821335,16.148058978060288,1.4218694976418622,jump
05/08/2020, 15:20:15,10.449456,-4.426722,11.487942,-0.91217005,1.3224633999999997,0.66428447,16.148058978060288,1.7384583645107594,jump
05/08/2020, 15:20:15,11.047661999999999,-4.7784667,12.203396000000001,-0.91217005,1.3224633999999997,0.66428447,17.14081226094473,1.7384583645107594,jump
05/08/2020, 15:20:15,11.047661999999999,-4.7784667,12.203396000000001,-1.0941156,1.7205456000000001,0.90362227,17.14081226094473,2.230224095697994,jump
05/08/2020, 15:20:15,11.562119500000001,-5.24746,12.940385000000001,-1.0941156,1.7205456000000001,0.90362227,18.129313354106714,2.230224095697994,jump
05/08/2020, 15:20:15,11.562119500000001,-5.24746,12.940385000000001,-1.2638501,2.1345023999999997,1.1478443999999999,18.129313354106714,2.733306503770164,jump
05/08/2020, 15:20:15,12.05504,-5.6350975,13.380664000000001,-1.2638501,2.1345023999999997,1.1478443999999999,18.871154908856077,2.733306503770164,jump
05/08/2020, 15:20:15,12.05504,-5.6350975,13.380664000000001,-1.4006145,2.4874034,1.3810767,18.871154908856077,3.171162160728388,jump
05/08/2020, 15:20:15,12.579068,-5.996413700000001,13.832907999999998,-1.4006145,2.4874034,1.3810767,19.635153896047896,3.171162160728388,jump
05/08/2020, 15:20:15,12.579068,-5.996413700000001,13.832907999999998,-1.570349,2.789018,1.6362889999999999,19.635153896047896,3.59472649032889,jump
05/08/2020, 15:20:15,13.160523999999999,-6.3792653,13.919049,-1.570349,2.789018,1.6362889999999999,20.189956907056285,3.59472649032889,jump
05/08/2020, 15:20:15,13.160523999999999,-6.3792653,13.919049,-1.8218979,3.0723157000000003,1.9208078000000002,20.189956907056285,4.055605786704967,jump
05/08/2020, 15:20:15,13.737195000000002,-6.3888364,13.794622,-1.8218979,3.0723157000000003,1.9208078000000002,20.48949401433185,4.055605786704967,jump
05/08/2020, 15:20:15,13.737195000000002,-6.3888364,13.794622,-2.1906734,3.4533023999999997,2.2248645000000002,20.48949401433185,4.65557397649054,jump
05/08/2020, 15:20:15,14.263616,-6.192625,13.469198,-2.1906734,3.4533023999999997,2.2248645000000002,20.572278338890914,4.65557397649054,jump
05/08/2020, 15:20:15,14.263616,-6.192625,13.469198,-2.6644645000000002,3.9258723,2.5093834,20.572278338890914,5.36738760478689,jump
05/08/2020, 15:20:15,14.536398000000002,-5.996413700000001,13.048062,-2.6644645000000002,3.9258723,2.5093834,20.4332027023026,5.36738760478689,jump
05/08/2020, 15:20:15,14.536398000000002,-5.996413700000001,13.048062,-3.1248236,4.372799,2.7645957,20.4332027023026,6.043912837014718,jump
05/08/2020, 15:20:15,14.275579,-6.202196,12.545569,-3.1248236,4.372799,2.7645957,19.991266030435156,6.043912837014718,jump
05/08/2020, 15:20:15,14.275579,-6.202196,12.545569,-3.503368,4.770881,3.0515567999999997,19.991266030435156,6.659346282050049,jump
05/08/2020, 15:20:16,10.655239,0.5455635999999999,12.9643135,-0.3724389,0.2295689,0.91583335,16.79003230246052,1.0149696307987988,jump
05/08/2020, 15:20:16,10.655239,0.5455635999999999,12.9643135,-0.82547116,0.58124894,0.80471224,16.79003230246052,1.2910518008164489,jump
05/08/2020, 15:20:16,9.949356,0.8039884,11.779866,-0.82547116,0.58124894,0.80471224,15.440250381998167,1.2910518008164489,jump
05/08/2020, 15:20:16,9.949356,0.8039884,11.779866,-1.1905833000000001,0.7998278,0.6032289000000001,15.440250381998167,1.5559879110574937,jump
05/08/2020, 15:20:16,9.253045,1.0073783,10.679167999999999,-1.1905833000000001,0.7998278,0.6032289000000001,14.166096081484726,1.5559879110574937,jump
05/08/2020, 15:20:16,9.253045,1.0073783,10.679167999999999,-1.4873134,0.9133912000000001,0.36633334,14.166096081484726,1.7834193749421086,jump
05/08/2020, 15:20:16,8.685946000000001,1.0624132,9.667003999999999,-1.4873134,0.9133912000000001,0.36633334,13.039376788742617,1.7834193749421086,jump
05/08/2020, 15:20:16,8.685946000000001,1.0624132,9.667003999999999,-1.7754956000000002,0.9732255999999999,0.17217667,13.039376788742617,2.032042730967308,jump
05/08/2020, 15:20:16,8.394022,1.026521,8.7984085,-1.7754956000000002,0.9732255999999999,0.17217667,12.203497150785262,2.032042730967308,jump
05/08/2020, 15:20:16,8.394022,1.026521,8.7984085,-2.0832157,1.0611455,0.06960334,12.203497150785262,2.3389446764334565,jump
05/08/2020, 15:20:16,8.396415,0.8709874,8.042277,-2.0832157,1.0611455,0.06960334,11.659186275058026,2.3389446764334565,jump
05/08/2020, 15:20:16,8.396415,0.8709874,8.042277,-2.3799458,1.1979101,0.035412222,11.659186275058026,2.6646546416102685,jump
05/08/2020, 15:20:16,8.504091,0.5240282,7.4010005,-2.3799458,1.1979101,0.035412222,11.285786731053493,2.6646546416102685,jump
05/08/2020, 15:20:16,8.504091,0.5240282,7.4010005,-2.5875347,1.3517700000000001,0.03174889,11.285786731053493,2.919524942572392,jump
05/08/2020, 15:20:16,8.554341,0.02632105,6.807580499999999,-2.5875347,1.3517700000000001,0.03174889,10.9325477369995,2.919524942572392,jump
05/08/2020, 15:20:16,8.554341,0.02632105,6.807580499999999,-2.6559167,1.4763233999999998,0.05006556,10.9325477369995,3.039067407977956,jump
05/08/2020, 15:20:16,8.532805,-0.5982057,6.183053500000001,-2.6559167,1.4763233999999998,0.05006556,10.554466792341113,3.039067407977956,jump
05/08/2020, 15:20:16,8.532805,-0.5982057,6.183053500000001,-2.5960822,1.5190622999999999,0.10135223,10.554466792341113,3.0095623154975253,jump
05/08/2020, 15:20:16,8.46102,-1.1916257,5.5274205,-2.5960822,1.5190622999999999,0.10135223,10.176503173716014,3.0095623154975253,jump
05/08/2020, 15:20:16,8.46102,-1.1916257,5.5274205,-2.4239056,1.4885344999999999,0.17828223,10.176503173716014,2.850059258254721,jump
05/08/2020, 15:20:17,8.367701,-2.28036,4.2352962,-0.03174889,0.20148334,0.17584,9.651745381891779,0.26930138405063675,jump
05/08/2020, 15:20:17,8.367701,-2.28036,4.2352962,-0.06716111,0.19415668,0.16485001,9.651745381891779,0.2634064471972323,jump
05/08/2020, 15:20:17,8.248059,-2.2181466,4.240082,-0.06716111,0.19415668,0.16485001,9.535667228962467,0.2634064471972323,jump
05/08/2020, 15:20:17,8.248059,-2.2181466,4.240082,-0.085477784,0.16973445,0.15019667,9.535667228962467,0.2422297971639166,jump
05/08/2020, 15:20:17,8.154739,-2.184647,4.2520456,-0.085477784,0.16973445,0.15019667,9.452637160279023,0.2422297971639166,jump
05/08/2020, 15:20:17,8.154739,-2.184647,4.2520456,-0.09036223,0.12455334,0.1306589,9.452637160279023,0.2018678108217501,jump
05/08/2020, 15:20:17,8.171489999999999,-2.184647,4.2568316,-0.09036223,0.12455334,0.1306589,9.469241929128,0.2018678108217501,jump
05/08/2020, 15:20:17,8.171489999999999,-2.184647,4.2568316,-0.08303556,0.08914111599999999,0.102573335,9.469241929128,0.1592555541825648,jump
05/08/2020, 15:20:17,8.271988,-2.210968,4.28076,-0.08303556,0.08914111599999999,0.102573335,9.572829686368326,0.1592555541825648,jump
05/08/2020, 15:20:17,8.271988,-2.210968,4.28076,-0.081814446,0.07693,0.07937223,9.572829686368326,0.13752010421367933,jump
05/08/2020, 15:20:17,8.374879,-2.254039,4.2855453,-0.081814446,0.07693,0.07937223,9.673943729701946,0.13752010421367933,jump
05/08/2020, 15:20:17,8.374879,-2.254039,4.2855453,-0.08425667,0.081814446,0.06227667,9.673943729701946,0.13293296677022165,jump
05/08/2020, 15:20:17,8.415557000000002,-2.268396,4.240082,-0.08425667,0.081814446,0.06227667,9.692549282297632,0.13293296677022165,jump
05/08/2020, 15:20:17,8.415557000000002,-2.268396,4.240082,-0.08059334,0.08059334,0.045181114,9.692549282297632,0.12260467372549705,jump
05/08/2020, 15:20:17,8.394022,-2.2731814,4.24726,-0.08059334,0.08059334,0.045181114,9.678128811352924,0.12260467372549705,jump
05/08/2020, 15:20:17,8.394022,-2.2731814,4.24726,-0.064718895,0.06227667,0.018316668,9.678128811352924,0.09166471031971117,jump
05/08/2020, 15:20:17,8.384451,-2.3258235000000003,4.2209389999999996,-0.064718895,0.06227667,0.018316668,9.670822077549033,0.09166471031971117,jump
05/08/2020, 15:20:17,8.384451,-2.3258235000000003,4.2209389999999996,-0.039075557000000004,0.037854444,-0.007326666999999999,9.670822077549033,0.05489570262412312,jump
05/08/2020, 15:20:17,8.374879,-2.3712873,4.206582,-0.039075557000000004,0.037854444,-0.007326666999999999,9.667312589045208,0.05489570262412312,jump
05/08/2020, 15:20:17,8.374879,-2.3712873,4.206582,-0.0024422223,0.013432221999999999,-0.018316668,9.667312589045208,0.02284489786057458,jump
05/08/2020, 15:20:18,8.49452,-2.143969,4.465007,-0.02075889,0.025643334,0.058613338,9.83309526631964,0.06726095009674561,jump
05/08/2020, 15:20:18,8.49452,-2.143969,4.465007,-0.028085556,0.029306669,0.047623335999999995,9.83309526631964,0.0625752462752388,jump
05/08/2020, 15:20:18,8.463413000000001,-2.1702902,4.453043,-0.028085556,0.029306669,0.047623335999999995,9.806585295265098,0.0625752462752388,jump
05/08/2020, 15:20:18,8.463413000000001,-2.1702902,4.453043,-0.028085556,0.026864445,0.03174889,9.806585295265098,0.050184548592802525,jump
05/08/2020, 15:20:18,8.439486,-2.1511476000000003,4.443471400000001,-0.028085556,0.026864445,0.03174889,9.777361133055722,0.050184548592802525,jump
05/08/2020, 15:20:18,8.439486,-2.1511476000000003,4.443471400000001,-0.02075889,0.015874445,0.02075889,9.777361133055722,0.033374556388306616,jump
05/08/2020, 15:20:18,8.463413000000001,-2.160719,4.4482574,-0.02075889,0.015874445,0.02075889,9.802298924051106,0.033374556388306616,jump
05/08/2020, 15:20:18,8.463413000000001,-2.160719,4.4482574,-0.009768889000000001,0.009768889000000001,0.013432221999999999,9.802298924051106,0.01926880885911909,jump
05/08/2020, 15:20:18,8.480164,-2.1870399,4.4554358,-0.009768889000000001,0.009768889000000001,0.013432221999999999,9.825844763088085,0.01926880885911909,jump
05/08/2020, 15:20:18,8.480164,-2.1870399,4.4554358,0.0012211112,0.0048844446,0.007326666999999999,9.825844763088085,0.008889823628835239,jump
05/08/2020, 15:20:18,8.504091,-2.201397,4.4745784,0.0012211112,0.0048844446,0.007326666999999999,9.858375545046993,0.008889823628835239,jump
05/08/2020, 15:20:18,8.504091,-2.201397,4.4745784,0.0036633335999999997,0.0012211112,-0.0048844446,9.858375545046993,0.006226469705183319,jump
05/08/2020, 15:20:18,8.530413000000001,-2.1750757999999997,4.493721,0.0036633335999999997,0.0012211112,-0.0048844446,9.883947768532128,0.006226469705183319,jump
05/08/2020, 15:20:18,8.530413000000001,-2.1750757999999997,4.493721,0.007326666999999999,0.0012211112,-0.013432221999999999,9.883947768532128,0.01534912908874015,jump
05/08/2020, 15:20:18,8.530413000000001,-2.1774685000000003,4.476971,0.007326666999999999,0.0012211112,-0.013432221999999999,9.876870976987966,0.01534912908874015,jump
05/08/2020, 15:20:18,8.530413000000001,-2.1774685000000003,4.476971,0.006105555699999999,0.0012211112,-0.02198,9.876870976987966,0.02284489771745338,jump
05/08/2020, 15:20:18,8.52802,-2.1798615000000003,4.4602213,0.006105555699999999,0.0012211112,-0.02198,9.867750190416153,0.02284489771745338,jump
05/08/2020, 15:20:18,8.52802,-2.1798615000000003,4.4602213,0.0024422223,0.006105555699999999,-0.028085556,9.867750190416153,0.028845115865167362,jump
05/08/2020, 15:20:18,8.484949,-2.201397,4.4674,0.0024422223,0.006105555699999999,-0.028085556,9.838606270720668,0.028845115865167362,jump
05/08/2020, 15:20:18,8.484949,-2.201397,4.4674,0.006105555699999999,0.009768889000000001,-0.035412222,9.838606270720668,0.037238884052971793,jump
05/08/2020, 15:20:19,8.504091,-2.3306093,4.5678983,0.0036633335999999997,0.006105555699999999,0.0012211112,9.930609379740048,0.007224191011396784,jump
05/08/2020, 15:20:19,8.504091,-2.3306093,4.5678983,-0.006105555699999999,0.006105555699999999,0.008547778,9.930609379740048,0.012149902607001174,jump
05/08/2020, 15:20:19,8.504091,-2.3114667,4.536792,-0.006105555699999999,0.006105555699999999,0.008547778,9.911857864848693,0.012149902607001174,jump
05/08/2020, 15:20:19,8.504091,-2.3114667,4.536792,-0.013432221999999999,0.009768889000000001,0.0024422223,9.911857864848693,0.016787502698187733,jump
05/08/2020, 15:20:19,8.518449,-2.3042881,4.5296135,-0.013432221999999999,0.009768889000000001,0.0024422223,9.919229443328007,0.016787502698187733,jump
05/08/2020, 15:20:19,8.518449,-2.3042881,4.5296135,-0.013432221999999999,0.014653333999999999,0.008547778,9.919229443328007,0.02163814504129237,jump
05/08/2020, 15:20:19,8.52802,-2.3162522,4.5655055,-0.013432221999999999,0.014653333999999999,0.008547778,9.946657147735944,0.02163814504129237,jump
05/08/2020, 15:20:19,8.52802,-2.3162522,4.5655055,-0.008547778,0.015874445,0.009768889000000001,9.946657147735944,0.0205059437411231,jump
05/08/2020, 15:20:19,8.496913000000001,-2.3090740000000003,4.5415773,-0.008547778,0.015874445,0.009768889000000001,9.907334500498358,0.0205059437411231,jump
05/08/2020, 15:20:19,8.496913000000001,-2.3090740000000003,4.5415773,-0.0036633335999999997,0.01099,0.009768889000000001,9.907334500498358,0.015153590933515284,jump
05/08/2020, 15:20:19,8.477771,-2.3306093,4.551149,-0.0036633335999999997,0.01099,0.009768889000000001,9.900368370431208,0.015153590933515284,jump
05/08/2020, 15:20:19,8.477771,-2.3306093,4.551149,-0.0036633335999999997,0.013432221999999999,0.009768889000000001,9.900368370431208,0.017008110125130416,jump
05/08/2020, 15:20:19,8.463413000000001,-2.3425734,4.5463629999999995,-0.0036633335999999997,0.013432221999999999,0.009768889000000001,9.888702099316165,0.017008110125130416,jump
05/08/2020, 15:20:19,8.463413000000001,-2.3425734,4.5463629999999995,0.0048844446,0.009768889000000001,0.012211111,9.888702099316165,0.0163829252069518,jump
05/08/2020, 15:20:19,8.458628,-2.3665016,4.5415773,0.0048844446,0.009768889000000001,0.012211111,9.888105834189897,0.0163829252069518,jump
05/08/2020, 15:20:19,8.458628,-2.3665016,4.5415773,0.008547778,0.009768889000000001,0.009768889000000001,9.888105834189897,0.016245827421606542,jump
05/08/2020, 15:20:19,8.456235000000001,-2.349752,4.5655055,0.008547778,0.009768889000000001,0.009768889000000001,9.893082631826914,0.016245827421606542,jump
05/08/2020, 15:20:19,8.456235000000001,-2.349752,4.5655055,0.007326666999999999,0.012211111,0.0048844446,9.893082631826914,0.015054869400898356,jump
05/08/2020, 15:20:19,8.456235000000001,-2.3449662,4.5535417,0.007326666999999999,0.012211111,0.0048844446,9.886430965204251,0.015054869400898356,jump
05/08/2020, 15:20:19,8.456235000000001,-2.3449662,4.5535417,0.007326666999999999,0.007326666999999999,0.0024422223,9.886430965204251,0.010645400617158171,jump
05/08/2020, 15:20:20,8.499305999999999,-2.2588246,4.426722,-0.014653333999999999,0.008547778,-0.029306669,9.845626157250484,0.03386245054908522,jump
05/08/2020, 15:20:20,8.499305999999999,-2.2588246,4.426722,-0.007326666999999999,0.0036633335999999997,-0.025643334,9.845626157250484,0.026919892891197054,jump
05/08/2020, 15:20:20,8.472985000000001,-2.2660031000000003,4.4554358,-0.007326666999999999,0.0036633335999999997,-0.025643334,9.837538172083457,0.026919892891197054,jump
05/08/2020, 15:20:20,8.472985000000001,-2.2660031000000003,4.4554358,-0.0024422223,-0.008547778,-0.03297,9.837538172083457,0.034147472330788416,jump
05/08/2020, 15:20:20,8.520842,-2.2731814,4.4721855999999995,-0.0024422223,-0.008547778,-0.03297,9.88799977471306,0.034147472330788416,jump
05/08/2020, 15:20:20,8.520842,-2.2731814,4.4721855999999995,0.0036633335999999997,-0.014653333999999999,-0.03052778,9.88799977471306,0.03406002882294477,jump
05/08/2020, 15:20:20,8.566305,-2.2851455,4.4721855999999995,0.0036633335999999997,-0.014653333999999999,-0.03052778,9.929950568950893,0.03406002882294477,jump
05/08/2020, 15:20:20,8.566305,-2.2851455,4.4721855999999995,0.008547778,-0.007326666999999999,-0.029306669,9.929950568950893,0.031394671531014856,jump
05/08/2020, 15:20:20,8.551949,-2.2731814,4.438686,0.008547778,-0.007326666999999999,-0.029306669,9.89975304108894,0.031394671531014856,jump
05/08/2020, 15:20:20,8.551949,-2.2731814,4.438686,0.007326666999999999,0.0012211112,-0.03174889,9.89975304108894,0.03260618402371171,jump
05/08/2020, 15:20:20,8.525627,-2.268396,4.426722,0.007326666999999999,0.0012211112,-0.03174889,9.870552473589195,0.03260618402371171,jump
05/08/2020, 15:20:20,8.525627,-2.268396,4.426722,0.0012211112,0.0012211112,-0.036633335,9.870552473589195,0.0366740161709405,jump
05/08/2020, 15:20:20,8.4682,-2.2779672000000004,4.4339004,0.0012211112,0.0012211112,-0.036633335,9.826444609626694,0.0366740161709405,jump
05/08/2020, 15:20:20,8.4682,-2.2779672000000004,4.4339004,0.0012211112,-0.0012211112,-0.04029667,9.826444609626694,0.040333656442307964,jump
05/08/2020, 15:20:20,8.427522,-2.2827528,4.4458647000000004,0.0012211112,-0.0012211112,-0.04029667,9.797948507569641,0.040333656442307964,jump
05/08/2020, 15:20:20,8.427522,-2.2827528,4.4458647000000004,0.006105555699999999,-0.013432221999999999,-0.04151778,9.797948507569641,0.04406164320163255,jump
05/08/2020, 15:20:20,8.408379,-2.3186452,4.45065,0.006105555699999999,-0.013432221999999999,-0.04151778,9.792100580589027,0.04406164320163255,jump
05/08/2020, 15:20:20,8.408379,-2.3186452,4.45065,0.007326666999999999,-0.018316668,-0.04029667,9.792100580589027,0.04486649059801821,jump
05/08/2020, 15:20:20,8.420342,-2.347359,4.462614,0.007326666999999999,-0.018316668,-0.04029667,9.814641366024599,0.04486649059801821,jump
05/08/2020, 15:20:20,8.420342,-2.347359,4.462614,0.023201112000000003,-0.019537778999999998,-0.035412222,9.814641366024599,0.04662662172185952,jump
05/08/2020, 15:20:21,-4.6803612999999995,4.6037908,-0.8470591999999999,0.3712178,0.32237336,0.84745115,6.619530214467027,0.9797452125010846,jump
05/08/2020, 15:20:21,-4.6803612999999995,4.6037908,-0.8470591999999999,0.39686114,0.09646778,0.48111778,6.619530214467027,0.63109358772315,jump
05/08/2020, 15:20:21,-4.876572599999999,5.0799623,-0.9523434000000001,0.39686114,0.09646778,0.48111778,7.105908447745555,0.63109358772315,jump
05/08/2020, 15:20:21,-4.876572599999999,5.0799623,-0.9523434000000001,0.32725778,-0.13310112,0.08792,7.105908447745555,0.36406522930763374,jump
05/08/2020, 15:20:21,-5.027320400000001,5.584848,-1.0336994000000002,0.32725778,-0.13310112,0.08792,7.585051816411028,0.36406522930763374,jump
05/08/2020, 15:20:21,-5.027320400000001,5.584848,-1.0336994000000002,0.17950334,-0.3614489,-0.34679556,7.585051816411028,0.5321033027727549,jump
05/08/2020, 15:20:21,-5.087141,5.977271,-0.9810573,0.17950334,-0.3614489,-0.34679556,7.910072496073452,0.5321033027727549,jump
05/08/2020, 15:20:21,-5.087141,5.977271,-0.9810573,0.017095556,-0.6020078000000001,-0.80227005,7.910072496073452,1.0031664357200794,jump
05/08/2020, 15:20:21,-5.0536413,6.056234,-0.7752745,0.017095556,-0.6020078000000001,-0.80227005,7.925800275187472,1.0031664357200794,jump
05/08/2020, 15:20:21,-5.0536413,6.056234,-0.7752745,-0.12699556,-0.8413456,-1.2565233999999998,7.925800275187472,1.5175115442291192,jump
05/08/2020, 15:20:21,-4.886143700000001,5.7355957,-0.50488555,-0.12699556,-0.8413456,-1.2565233999999998,7.551580470149117,1.5175115442291192,jump
05/08/2020, 15:20:21,-4.886143700000001,5.7355957,-0.50488555,-0.21491556,-1.0709145,-1.6924601000000001,7.551580470149117,2.0143156737673293,jump
05/08/2020, 15:20:21,-4.6492543,5.218746,-0.15792629,-0.21491556,-1.0709145,-1.6924601000000001,6.991124245154843,2.0143156737673293,jump
05/08/2020, 15:20:21,-4.6492543,5.218746,-0.15792629,-0.24055889,-1.2931567,-2.107638,6.991124245154843,2.4844034264732824,jump
05/08/2020, 15:20:21,-4.390829599999999,4.6516470000000005,0.12203395,-0.24055889,-1.2931567,-2.107638,6.3978197221231685,2.4844034264732824,jump
05/08/2020, 15:20:21,-4.390829599999999,4.6516470000000005,0.12203395,-0.18194556,-1.5080723,-2.4922879,6.3978197221231685,2.918712895801168,jump
05/08/2020, 15:20:21,-4.158725700000001,4.180261,0.5168497000000001,-0.18194556,-1.5080723,-2.4922879,5.919182083263283,2.918712895801168,jump
05/08/2020, 15:20:21,-4.158725700000001,4.180261,0.5168497000000001,-0.070824444,-1.7303145,-2.8476312000000004,5.919182083263283,3.3328678176360027,jump
05/08/2020, 15:20:21,-3.9577286,3.8596230000000005,0.89013004,-0.070824444,-1.7303145,-2.8476312000000004,5.599342525217191,3.3328678176360027,jump
05/08/2020, 15:20:21,-3.9577286,3.8596230000000005,0.89013004,0.048844445,-1.9574412,-3.2005324,5.599342525217191,3.75198210945196,jump
05/08/2020, 15:20:22,7.195217599999999,-2.8354947999999998,3.0149565,0.5580478,-0.29795113,0.014653333999999999,8.300671629688367,0.632777142862145,jump
05/08/2020, 15:20:22,7.164111,-2.8953154,3.1609187000000003,0.5580478,-0.29795113,0.014653333999999999,8.348577532282816,0.632777142862145,jump
05/08/2020, 15:20:22,7.164111,-2.8953154,3.1609187000000003,0.65451556,-0.37976557,-0.06227667,8.348577532282816,0.7592699756086912,jump
05/08/2020, 15:20:22,7.097111999999999,-2.8977082000000003,3.2614172000000003,0.65451556,-0.37976557,-0.06227667,8.330819634969982,0.7592699756086912,jump
05/08/2020, 15:20:22,7.097111999999999,-2.8977082000000003,3.2614172000000003,0.74121445,-0.4591378,-0.14164889,8.330819634969982,0.8833293789268668,jump
05/08/2020, 15:20:22,7.039684299999999,-2.8426732999999995,3.3308089999999995,0.74121445,-0.4591378,-0.14164889,8.290490688271218,0.8833293789268668,jump
05/08/2020, 15:20:22,7.039684299999999,-2.8426732999999995,3.3308089999999995,0.81570226,-0.5372889,-0.22102112,8.290490688271218,1.0014488885639208,jump
05/08/2020, 15:20:22,7.0348988,-2.8785654999999997,3.4241292000000003,0.81570226,-0.5372889,-0.22102112,8.336702061600434,1.0014488885639208,jump
05/08/2020, 15:20:22,7.0348988,-2.8785654999999997,3.4241292000000003,0.8718734,-0.60445005,-0.27475002,8.336702061600434,1.0959063024042055,jump
05/08/2020, 15:20:22,7.097111999999999,-2.9766715,3.5270207,0.8718734,-0.60445005,-0.27475002,8.46578107505583,1.0959063024042055,jump
05/08/2020, 15:20:22,7.097111999999999,-2.9766715,3.5270207,0.9182756,-0.6618421999999999,-0.30405667,8.46578107505583,1.1720561686242532,jump
05/08/2020, 15:20:22,7.2574309999999995,-3.1226335,3.6514472999999996,0.9182756,-0.6618421999999999,-0.30405667,8.703689575324168,1.1720561686242532,jump
05/08/2020, 15:20:22,7.2574309999999995,-3.1226335,3.6514472999999996,0.9829945,-0.6935911,-0.3260367,8.703689575324168,1.246453666956001,jump
05/08/2020, 15:20:22,7.4177504,-3.2853456,3.7471601999999997,0.9829945,-0.6935911,-0.3260367,8.936314974893355,1.246453666956001,jump
05/08/2020, 15:20:22,7.4177504,-3.2853456,3.7471601999999997,1.0745778,-0.71923447,-0.3382478,8.936314974893355,1.3365729543469838,jump
05/08/2020, 15:20:22,7.496713000000001,-3.4265220000000003,3.8237305,1.0745778,-0.71923447,-0.3382478,9.086400610402043,1.3365729543469838,jump
05/08/2020, 15:20:22,7.496713000000001,-3.4265220000000003,3.8237305,1.1637189,-0.74976224,-0.35290113,9.086400610402043,1.4286092499091203,jump
05/08/2020, 15:20:22,7.5828547,-3.5341989999999996,3.9290147000000006,1.1637189,-0.74976224,-0.35290113,9.242694686649926,1.4286092499091203,jump
05/08/2020, 15:20:22,7.5828547,-3.5341989999999996,3.9290147000000006,1.2577446,-0.7900589,-0.3492378,9.242694686649926,1.5258051901002343,jump
05/08/2020, 15:20:22,7.594819,-3.5820556000000003,4.0007997,1.2577446,-0.7900589,-0.3492378,9.301548079402831,1.5258051901002343,jump
05/08/2020, 15:20:23,8.300702000000001,-2.5579273999999996,4.0031924,-0.20026223,0.07326667,-0.07570889,9.564005295418548,0.22628478286146897,jump
05/08/2020, 15:20:23,8.300702000000001,-2.5579273999999996,4.0031924,-0.1746189,0.042738892,-0.06227667,9.564005295418548,0.19025445213960626,jump
05/08/2020, 15:20:23,8.355737,-2.6512474999999998,4.1515474,-0.1746189,0.042738892,-0.06227667,9.69962863906645,0.19025445213960626,jump
05/08/2020, 15:20:23,8.355737,-2.6512474999999998,4.1515474,-0.123332225,0.014653333999999999,-0.04151778,9.69962863906645,0.13095527431867385,jump
05/08/2020, 15:20:23,8.477771,-2.6703901,4.287938,-0.123332225,0.014653333999999999,-0.04151778,9.868636915672164,0.13095527431867385,jump
05/08/2020, 15:20:23,8.477771,-2.6703901,4.287938,-0.06838222599999999,0.014653333999999999,-0.018316668,9.868636915672164,0.07229349446108188,jump
05/08/2020, 15:20:23,8.635697,-2.6703901,4.4602213,-0.06838222599999999,0.014653333999999999,-0.018316668,10.079673922260211,0.07229349446108188,jump
05/08/2020, 15:20:23,8.635697,-2.6703901,4.4602213,-0.024422223,0.035412222,0.008547778,10.079673922260211,0.04385812301299602,jump
05/08/2020, 15:20:23,8.669196000000001,-2.6392834,4.5655055,-0.024422223,0.035412222,0.008547778,10.147148318467684,0.04385812301299602,jump
05/08/2020, 15:20:23,8.669196000000001,-2.6392834,4.5655055,-0.0012211112,0.064718895,0.037854444,10.147148318467684,0.07498656804337392,jump
05/08/2020, 15:20:23,8.62134,-2.5674987000000002,4.642076,-0.0012211112,0.064718895,0.037854444,10.122668577876473,0.07498656804337392,jump
05/08/2020, 15:20:23,8.62134,-2.5674987000000002,4.642076,0.0048844446,0.07693,0.06594,10.122668577876473,0.1014404580377268,jump
05/08/2020, 15:20:23,8.489735000000001,-2.5387847000000003,4.694718,0.0048844446,0.07693,0.06594,10.028030634205855,0.1014404580377268,jump
05/08/2020, 15:20:23,8.489735000000001,-2.5387847000000003,4.694718,0.009768889000000001,0.058613338,0.08059334,10.028030634205855,0.10013111907897926,jump
05/08/2020, 15:20:23,8.384451,-2.510071,4.725825,0.009768889000000001,0.058613338,0.08059334,9.946501599906894,0.10013111907897926,jump
05/08/2020, 15:20:23,8.384451,-2.510071,4.725825,0.02075889,0.024422223,0.09646778,9.946501599906894,0.10165337510884684,jump
05/08/2020, 15:20:23,8.348558,-2.4478576000000003,4.718646,0.02075889,0.024422223,0.09646778,9.897275142725103,0.10165337510884684,jump
05/08/2020, 15:20:23,8.348558,-2.4478576000000003,4.718646,0.023201112000000003,-0.0048844446,0.10135223,9.897275142725103,0.10408853852300236,jump
05/08/2020, 15:20:23,8.4012,-2.361716,4.749753,0.023201112000000003,-0.0048844446,0.10135223,9.935694366752127,0.10408853852300236,jump
05/08/2020, 15:20:23,8.4012,-2.361716,4.749753,0.019537778999999998,-0.01099,0.10745778,9.935694366752127,0.10977103097416824,jump
05/08/2020, 15:20:24,8.3581295,-2.3282163,4.4051867,-0.07448778,-0.035412222,-0.01099,9.730600670895956,0.08320598177472087,jump
05/08/2020, 15:20:24,8.3581295,-2.3282163,4.4051867,-0.081814446,-0.029306669,-0.029306669,9.730600670895956,0.09171349503987036,jump
05/08/2020, 15:20:24,8.386844,-2.3377876,4.409972,-0.081814446,-0.029306669,-0.029306669,9.75972605423587,0.09171349503987036,jump
05/08/2020, 15:20:24,8.386844,-2.3377876,4.409972,-0.09036223,-0.03174889,-0.05617111,9.75972605423587,0.1110338605992061,jump
05/08/2020, 15:20:24,8.384451,-2.3449662,4.402794,-0.09036223,-0.03174889,-0.05617111,9.756150749371578,0.1110338605992061,jump
05/08/2020, 15:20:24,8.384451,-2.3449662,4.402794,-0.08059334,-0.051286668,-0.06349778,9.756150749371578,0.11470648206584892,jump
05/08/2020, 15:20:24,8.403592999999999,-2.4502504000000003,4.388437000000001,-0.08059334,-0.051286668,-0.06349778,9.79196000971167,0.11470648206584892,jump
05/08/2020, 15:20:24,8.403592999999999,-2.4502504000000003,4.388437000000001,-0.05250778,-0.06594,-0.081814446,9.79196000971167,0.11746809834649365,jump
05/08/2020, 15:20:24,8.386844,-2.5316064,4.4482574,-0.05250778,-0.06594,-0.081814446,9.825231416576592,0.11746809834649365,jump
05/08/2020, 15:20:24,8.386844,-2.5316064,4.4482574,-0.007326666999999999,-0.085477784,-0.091583334,9.825231416576592,0.1254895960107182,jump
05/08/2020, 15:20:24,8.427522,-2.5938199,4.4889355,-0.007326666999999999,-0.085477784,-0.091583334,9.894521979690651,0.1254895960107182,jump
05/08/2020, 15:20:24,8.427522,-2.5938199,4.4889355,0.035412222,-0.10379445,-0.10379445,9.894521979690651,0.15099867675210765,jump
05/08/2020, 15:20:24,8.477771,-2.605784,4.551149,0.035412222,-0.10379445,-0.10379445,9.968734322819897,0.15099867675210765,jump
05/08/2020, 15:20:24,8.477771,-2.605784,4.551149,0.06105556,-0.10867889,-0.10379445,9.968734322819897,0.16221026613469572,jump
05/08/2020, 15:20:24,8.571091000000001,-2.6105695,4.610969,0.06105556,-0.10867889,-0.10379445,10.07669114766785,0.16221026613469572,jump
05/08/2020, 15:20:24,8.571091000000001,-2.6105695,4.610969,0.06594,-0.10379445,-0.102573335,10.07669114766785,0.1601332574926489,jump
05/08/2020, 15:20:24,8.630911,-2.6009982000000003,4.658826,0.06594,-0.10379445,-0.102573335,10.147042548309571,0.1601332574926489,jump
05/08/2020, 15:20:24,8.630911,-2.6009982000000003,4.658826,0.051286668,-0.08914111599999999,-0.09646778,10.147042548309571,0.1410052940914481,jump
05/08/2020, 15:20:24,8.664411,-2.5124638,4.682754,0.051286668,-0.08914111599999999,-0.09646778,10.164284070968657,0.1410052940914481,jump
05/08/2020, 15:20:24,8.664411,-2.5124638,4.682754,0.029306669,-0.07326667,-0.08303556,10.164284070968657,0.1145503808517116,jump
05/08/2020, 15:20:25,8.609376,-2.4789642999999995,4.4889355,-0.015874445,0.014653333999999999,-0.017095556,10.020836298135995,0.02754952410285431,jump
05/08/2020, 15:20:25,8.609376,-2.4789642999999995,4.4889355,0.0,0.018316668,-0.009768889000000001,10.020836298135995,0.02075888983467046,jump
05/08/2020, 15:20:25,8.611769,-2.481357,4.57747,0.0,0.018316668,-0.009768889000000001,10.063444916228146,0.02075888983467046,jump
05/08/2020, 15:20:25,8.611769,-2.481357,4.57747,0.015874445,0.014653333999999999,-0.01099,10.063444916228146,0.02423836492201893,jump
05/08/2020, 15:20:25,8.590233,-2.4622145,4.5942197,0.015874445,0.014653333999999999,-0.01099,10.047957753112092,0.02423836492201893,jump
05/08/2020, 15:20:25,8.590233,-2.4622145,4.5942197,0.03174889,0.013432221999999999,-0.013432221999999999,10.047957753112092,0.03699785493923214,jump
05/08/2020, 15:20:25,8.566305,-2.4358935,4.646861599999999,0.03174889,0.013432221999999999,-0.013432221999999999,10.045321483883686,0.03699785493923214,jump
05/08/2020, 15:20:25,8.566305,-2.4358935,4.646861599999999,0.04151778,0.009768889000000001,-0.009768889000000001,10.045321483883686,0.043756009736144234,jump
05/08/2020, 15:20:25,8.554341,-2.3904297000000003,4.6396832,0.04151778,0.009768889000000001,-0.009768889000000001,10.020856764877443,0.043756009736144234,jump
05/08/2020, 15:20:25,8.554341,-2.3904297000000003,4.6396832,0.04029667,0.007326666999999999,-0.014653333999999999,10.020856764877443,0.043499676759190836,jump
05/08/2020, 15:20:25,8.556734,-2.3688943,4.6372905,0.04029667,0.007326666999999999,-0.014653333999999999,10.016677171865183,0.043499676759190836,jump
05/08/2020, 15:20:25,8.556734,-2.3688943,4.6372905,0.03297,0.006105555699999999,-0.014653333999999999,10.016677171865183,0.036592607490656286,jump
05/08/2020, 15:20:25,8.554341,-2.3306093,4.5942197,0.03297,0.006105555699999999,-0.014653333999999999,9.985757341069233,0.036592607490656286,jump
05/08/2020, 15:20:25,8.554341,-2.3306093,4.5942197,0.025643334,0.008547778,-0.023201112000000003,9.985757341069233,0.035622137290915595,jump
05/08/2020, 15:20:25,8.566305,-2.3377876,4.570291,0.025643334,0.008547778,-0.023201112000000003,9.986710935499175,0.035622137290915595,jump
05/08/2020, 15:20:25,8.566305,-2.3377876,4.570291,0.024422223,0.017095556,-0.017095556,9.986710935499175,0.034365114096666566,jump
05/08/2020, 15:20:25,8.549555999999999,-2.376073,4.517649,0.024422223,0.017095556,-0.017095556,9.957398275398623,0.034365114096666566,jump
05/08/2020, 15:20:25,8.549555999999999,-2.376073,4.517649,0.02198,0.023201112000000003,-0.024422223,9.957398275398623,0.04022259287123203,jump
05/08/2020, 15:20:25,8.525627,-2.3904297000000003,4.479364,0.02198,0.023201112000000003,-0.024422223,9.922961931675824,0.04022259287123203,jump
05/08/2020, 15:20:25,8.525627,-2.3904297000000003,4.479364,0.026864445,0.015874445,-0.026864445,9.922961931675824,0.041175172261618,jump
05/08/2020, 15:20:26,8.453842,-2.3090740000000003,4.3812584999999995,0.0,0.013432221999999999,0.0,9.797688280692784,0.013432222418487072,jump
05/08/2020, 15:20:26,8.453842,-2.3090740000000003,4.3812584999999995,-0.007326666999999999,0.009768889000000001,-0.0012211112,9.797688280692784,0.012272015423632838,jump
05/08/2020, 15:20:26,8.492127,-2.3114667,4.4051867,-0.007326666999999999,0.009768889000000001,-0.0012211112,9.841990439856797,0.012272015423632838,jump
05/08/2020, 15:20:26,8.492127,-2.3114667,4.4051867,-0.006105555699999999,0.008547778,-0.0036633335999999997,9.841990439856797,0.011124852186227722,jump
05/08/2020, 15:20:26,8.518449,-2.3377876,4.4315076,-0.006105555699999999,0.008547778,-0.0036633335999999997,9.882685918073996,0.011124852186227722,jump
05/08/2020, 15:20:26,8.518449,-2.3377876,4.4315076,-0.0048844446,0.009768889000000001,-0.0036633335999999997,9.882685918073996,0.011519939687235872,jump
05/08/2020, 15:20:26,8.52802,-2.333002,4.4339004,-0.0048844446,0.009768889000000001,-0.0036633335999999997,9.89087936561825,0.011519939687235872,jump
05/08/2020, 15:20:26,8.52802,-2.333002,4.4339004,-0.0036633335999999997,0.013432221999999999,-0.009768889000000001,9.89087936561825,0.017008110125130416,jump
05/08/2020, 15:20:26,8.525627,-2.3353949000000003,4.414757700000001,-0.0036633335999999997,0.013432221999999999,-0.009768889000000001,9.880813378308831,0.017008110125130416,jump
05/08/2020, 15:20:26,8.525627,-2.3353949000000003,4.414757700000001,-0.0036633335999999997,0.013432221999999999,-0.008547778,9.880813378308831,0.016337353672392814,jump
05/08/2020, 15:20:26,8.5423765,-2.3449662,4.4458647000000004,-0.0036633335999999997,0.013432221999999999,-0.008547778,9.911446698785914,0.016337353672392814,jump
05/08/2020, 15:20:26,8.5423765,-2.3449662,4.4458647000000004,-0.0012211112,0.007326666999999999,-0.009768889000000001,9.911446698785914,0.012272015423632838,jump
05/08/2020, 15:20:26,8.532805,-2.3401806,4.457828500000001,-0.0012211112,0.007326666999999999,-0.009768889000000001,9.907444133606354,0.012272015423632838,jump
05/08/2020, 15:20:26,8.532805,-2.3401806,4.457828500000001,-0.0048844446,0.009768889000000001,-0.008547778,9.907444133606354,0.013869156795080871,jump
05/08/2020, 15:20:26,8.532805,-2.333002,4.443471400000001,-0.0048844446,0.009768889000000001,-0.008547778,9.899298250054503,0.013869156795080871,jump
05/08/2020, 15:20:26,8.532805,-2.333002,4.443471400000001,-0.012211111,0.013432221999999999,-0.009768889000000001,9.899298250054503,0.020614728665873543,jump
05/08/2020, 15:20:26,8.537591,-2.3090740000000003,4.45065,-0.012211111,0.013432221999999999,-0.009768889000000001,9.901038808106359,0.020614728665873543,jump
05/08/2020, 15:20:26,8.537591,-2.3090740000000003,4.45065,-0.01099,0.01099,-0.007326666999999999,9.901038808106359,0.017182557048333286,jump
05/08/2020, 15:20:26,8.499305999999999,-2.321038,4.4410787,-0.01099,0.01099,-0.007326666999999999,9.866539156758746,0.017182557048333286,jump
05/08/2020, 15:20:26,8.499305999999999,-2.321038,4.4410787,-0.01099,0.006105555699999999,-0.0024422223,9.866539156758746,0.012807121744049622,jump
05/08/2020, 15:20:27,5.797809,-5.996413700000001,5.9820566,-2.9111290000000003,-4.0321093,-6.832117,10.264334823570133,8.450467498024562,jump
05/08/2020, 15:20:27,5.797809,-5.996413700000001,5.9820566,-1.9537779,-3.8977869,-6.739312599999999,10.264334823570133,8.026725700380554,jump
05/08/2020, 15:20:27,7.494320399999999,-10.035499,6.8985076,-1.9537779,-3.8977869,-6.739312599999999,14.299142551906733,8.026725700380554,jump
05/08/2020, 15:20:27,7.494320399999999,-10.035499,6.8985076,-0.8034911,-4.043099,-6.592778999999999,14.299142551906733,7.775408924883986,jump
05/08/2020, 15:20:27,8.700303,-12.033505,7.594819,-0.8034911,-4.043099,-6.592778999999999,16.67878303420093,7.775408924883986,jump
05/08/2020, 15:20:27,8.700303,-12.033505,7.594819,0.43227336,-4.2372556,-6.5170703,16.67878303420093,7.7854608250778385,jump
05/08/2020, 15:20:27,9.549755000000001,-12.753745,8.305488,0.43227336,-4.2372556,-6.5170703,17.967664310110948,7.7854608250778385,jump
05/08/2020, 15:20:27,9.549755000000001,-12.753745,8.305488,1.5556957,-4.3471556,-6.419381,17.967664310110948,7.90736395804023,jump
05/08/2020, 15:20:27,10.258030999999999,-13.239488,8.398808,1.5556957,-4.3471556,-6.419381,18.736360340358814,7.90736395804023,jump
05/08/2020, 15:20:27,10.258030999999999,-13.239488,8.398808,2.6632435,-4.4570555999999995,-6.2203403,18.736360340358814,8.102520799345541,jump
05/08/2020, 15:20:27,10.674382000000001,-13.153345999999999,7.8699937,2.6632435,-4.4570555999999995,-6.2203403,18.6785906536803,8.102520799345541,jump
05/08/2020, 15:20:27,10.674382000000001,-13.153345999999999,7.8699937,3.8208568,-4.689067,-6.028626,18.6785906536803,8.53994297736987,jump
05/08/2020, 15:20:27,10.741381,-12.361321,7.085147999999999,3.8208568,-4.689067,-6.028626,17.843173689054066,8.53994297736987,jump
05/08/2020, 15:20:27,10.741381,-12.361321,7.085147999999999,4.8685703,-5.04441,-5.8588915,17.843173689054066,9.136501576090671,jump
05/08/2020, 15:20:27,10.691132000000001,-11.49512,6.3314085,4.8685703,-5.04441,-5.8588915,16.927043842486064,9.136501576090671,jump
05/08/2020, 15:20:27,10.691132000000001,-11.49512,6.3314085,5.6610713,-5.438829,-5.568267,16.927043842486064,9.624665421924043,jump
05/08/2020, 15:20:27,10.810773,-10.9352,5.745167299999999,5.6610713,-5.438829,-5.568267,16.415186587348668,9.624665421924043,jump
05/08/2020, 15:20:27,10.810773,-10.9352,5.745167299999999,6.217898,-5.8173737999999995,-5.1213403,16.415186587348668,9.936408696459974,jump
05/08/2020, 15:20:27,11.353944,-10.609776,5.426922,6.217898,-5.8173737999999995,-5.1213403,16.459977465339,9.936408696459974,jump
05/08/2020, 15:20:27,11.353944,-10.609776,5.426922,6.6660457,-6.150737,-4.5950413,16.459977465339,10.167700449352568,jump
05/08/2020, 15:20:28,7.858029400000001,-2.6177479999999997,4.941179,0.7204556,-0.7424356,-0.31993112,9.644505074769961,1.0828770735315008,jump
05/08/2020, 15:20:28,7.858029400000001,-2.6177479999999997,4.941179,0.7534255999999999,-0.74732006,-0.32237336,9.644505074769961,1.1090815936956802,jump
05/08/2020, 15:20:28,8.054241000000001,-2.5722845000000003,5.015356,0.7534255999999999,-0.74732006,-0.32237336,9.830627893629307,1.1090815936956802,jump
05/08/2020, 15:20:28,8.054241000000001,-2.5722845000000003,5.015356,0.7668578,-0.74732006,-0.33336335,9.830627893629307,1.1214674680031342,jump
05/08/2020, 15:20:28,8.19781,-2.5196424,5.048856,0.7668578,-0.74732006,-0.33336335,9.952066816665608,1.1214674680031342,jump
05/08/2020, 15:20:28,8.19781,-2.5196424,5.048856,0.75953114,-0.73633003,-0.3260367,9.952066816665608,1.106964043669867,jump
05/08/2020, 15:20:28,8.315059,-2.4837499,5.06082,0.75953114,-0.73633003,-0.3260367,10.045950170677573,1.106964043669867,jump
05/08/2020, 15:20:28,8.315059,-2.4837499,5.06082,0.7424356,-0.7131289000000001,-0.33092109999999997,10.045950170677573,1.0813289177937522,jump
05/08/2020, 15:20:28,8.386844,-2.4598217,5.0679984000000005,0.7424356,-0.7131289000000001,-0.33092109999999997,10.103191456786696,1.0813289177937522,jump
05/08/2020, 15:20:28,8.386844,-2.4598217,5.0679984000000005,0.72411895,-0.68626446,-0.3284789,10.103191456786696,1.0503359190755641,jump
05/08/2020, 15:20:28,8.437092999999999,-2.4526432000000002,5.1014976999999995,0.72411895,-0.68626446,-0.3284789,10.159983824874336,1.0503359190755641,jump
05/08/2020, 15:20:28,8.437092999999999,-2.4526432000000002,5.1014976999999995,0.7082444999999999,-0.6655055999999999,-0.3162678,10.159983824874336,1.0220241078869978,jump
05/08/2020, 15:20:28,8.477771,-2.4071796,5.149354499999999,0.7082444999999999,-0.6655055999999999,-0.3162678,10.207005572585484,1.0220241078869978,jump
05/08/2020, 15:20:28,8.477771,-2.4071796,5.149354499999999,0.6887066999999999,-0.65085226,-0.31138334,10.207005572585484,0.997439303318865,jump
05/08/2020, 15:20:28,8.559127,-2.4071796,5.2259245000000005,0.6887066999999999,-0.65085226,-0.31138334,10.313265869485946,0.997439303318865,jump
05/08/2020, 15:20:28,8.559127,-2.4071796,5.2259245000000005,0.67161113,-0.6386411,-0.29795113,10.313265869485946,0.9734982620611494,jump
05/08/2020, 15:20:28,8.650053999999999,-2.3952155,5.2905307,0.67161113,-0.6386411,-0.29795113,10.41874301729658,0.9734982620611494,jump
05/08/2020, 15:20:28,8.650053999999999,-2.3952155,5.2905307,0.6447467,-0.61544,-0.28085557,10.41874301729658,0.9345290740482072,jump
05/08/2020, 15:20:28,8.7577305,-2.333002,5.3766723,0.6447467,-0.61544,-0.28085557,10.537995381530283,0.9345290740482072,jump
05/08/2020, 15:20:28,8.7577305,-2.333002,5.3766723,0.60811335,-0.57636446,-0.25765446,10.537995381530283,0.8765749554209319,jump
05/08/2020, 15:20:29,8.310273,-2.3234307999999997,4.8095737000000005,-0.015874445,0.09402556,-0.012211111,9.878814171737687,0.0961348799357639,jump
05/08/2020, 15:20:29,8.362915,-2.2971098,4.7856455,-0.015874445,0.09402556,-0.012211111,9.905426002224623,0.0961348799357639,jump
05/08/2020, 15:20:29,8.362915,-2.2971098,4.7856455,-0.026864445,0.09646778,-0.013432221999999999,9.905426002224623,0.10103541559510733,jump
05/08/2020, 15:20:29,8.427522,-2.3018954,4.76411,-0.026864445,0.09646778,-0.013432221999999999,9.950808478374137,0.10103541559510733,jump
05/08/2020, 15:20:29,8.427522,-2.3018954,4.76411,-0.035412222,0.10135223,-0.014653333999999999,9.950808478374137,0.10835598808710144,jump
05/08/2020, 15:20:29,8.456235000000001,-2.3114667,4.7449675000000004,-0.035412222,0.10135223,-0.014653333999999999,9.968224701702306,0.10835598808710144,jump
05/08/2020, 15:20:29,8.456235000000001,-2.3114667,4.7449675000000004,-0.05250778,0.11234222,-0.02198,9.968224701702306,0.12594031375133896,jump
05/08/2020, 15:20:29,8.458628,-2.3090740000000003,4.740181400000001,-0.05250778,0.11234222,-0.02198,9.96742319327088,0.12594031375133896,jump
05/08/2020, 15:20:29,8.458628,-2.3090740000000003,4.740181400000001,-0.05250778,0.109900005,-0.02075889,9.96742319327088,0.1235556945059738,jump
05/08/2020, 15:20:29,8.398808,-2.2923240000000003,4.7162533,-0.05250778,0.109900005,-0.02075889,9.901402046382591,0.1235556945059738,jump
05/08/2020, 15:20:29,8.398808,-2.2923240000000003,4.7162533,-0.046402223,0.10501556,-0.014653333999999999,9.901402046382591,0.11574175821631733,jump
05/08/2020, 15:20:29,8.353344,-2.3377876,4.6803612999999995,-0.046402223,0.10501556,-0.014653333999999999,9.856438910439376,0.11574175821631733,jump
05/08/2020, 15:20:29,8.353344,-2.3377876,4.6803612999999995,-0.036633335,0.09524667,-0.013432221999999999,9.856438910439376,0.10292888070613604,jump
05/08/2020, 15:20:29,8.338987,-2.3688943,4.694718,-0.036633335,0.09524667,-0.013432221999999999,9.858536728624193,0.10292888070613604,jump
05/08/2020, 15:20:29,8.338987,-2.3688943,4.694718,-0.028085556,0.085477784,-0.009768889000000001,9.858536728624193,0.090502382575102,jump
05/08/2020, 15:20:29,8.382058,-2.3641088,4.685147,-0.028085556,0.085477784,-0.009768889000000001,9.889312906554894,0.090502382575102,jump
05/08/2020, 15:20:29,8.382058,-2.3641088,4.685147,-0.014653333999999999,0.07693,-0.007326666999999999,9.889312906554894,0.07865510392282095,jump
05/08/2020, 15:20:29,8.41795,-2.3569303,4.673182499999999,-0.014653333999999999,0.07693,-0.007326666999999999,9.9123978707883,0.07865510392282095,jump
05/08/2020, 15:20:29,8.41795,-2.3569303,4.673182499999999,-0.01099,0.08059334,-0.0048844446,9.9123978707883,0.08148573111293983,jump
05/08/2020, 15:20:29,8.451449,-2.349752,4.6707897,-0.01099,0.08059334,-0.0048844446,9.93803842224874,0.08148573111293983,jump
05/08/2020, 15:20:30,8.341380000000001,-2.1966112,4.802395,-0.019537778999999998,0.03174889,-0.03174889,9.872523454907089,0.04896640619148215,jump
05/08/2020, 15:20:30,8.331808,-2.225325,4.7928239999999995,-0.019537778999999998,0.03174889,-0.03174889,9.866218008076618,0.04896640619148215,jump
05/08/2020, 15:20:30,8.331808,-2.225325,4.7928239999999995,-0.009768889000000001,0.03052778,-0.035412222,9.866218008076618,0.04776402429405333,jump
05/08/2020, 15:20:30,8.348558,-2.2588246,4.800002,-0.009768889000000001,0.03052778,-0.035412222,9.89144764160272,0.04776402429405333,jump
05/08/2020, 15:20:30,8.348558,-2.2588246,4.800002,-0.0036633335999999997,0.03297,-0.037854444,9.89144764160272,0.05033289049209444,jump
05/08/2020, 15:20:30,8.348558,-2.2947168,4.7976093,-0.0036633335999999997,0.03297,-0.037854444,9.89854577296626,0.05033289049209444,jump
05/08/2020, 15:20:30,8.348558,-2.2947168,4.7976093,-0.0024422223,0.03297,-0.04029667,9.89854577296626,0.05212299848235365,jump
05/08/2020, 15:20:30,8.355737,-2.2851455,4.8263235,-0.0024422223,0.03297,-0.04029667,9.916331227378087,0.05212299848235365,jump
05/08/2020, 15:20:30,8.355737,-2.2851455,4.8263235,-0.0012211112,0.029306669,-0.04029667,9.916331227378087,0.049841685013653776,jump
05/08/2020, 15:20:30,8.331808,-2.2899312999999997,4.802395,-0.0012211112,0.029306669,-0.04029667,9.885636441650908,0.049841685013653776,jump
05/08/2020, 15:20:30,8.331808,-2.2899312999999997,4.802395,0.0,0.025643334,-0.046402223,9.885636441650908,0.05301647767656485,jump
05/08/2020, 15:20:30,8.3174515,-2.2588246,4.7952166,0.0,0.025643334,-0.046402223,9.862879369034273,0.05301647767656485,jump
05/08/2020, 15:20:30,8.3174515,-2.2588246,4.7952166,-0.0024422223,0.026864445,-0.046402223,9.862879369034273,0.05367335636507712,jump
05/08/2020, 15:20:30,8.331808,-2.2612174,4.7880383,-0.0024422223,0.026864445,-0.046402223,9.872053499735252,0.05367335636507712,jump
05/08/2020, 15:20:30,8.331808,-2.2612174,4.7880383,-0.0048844446,0.028085556,-0.04151778,9.872053499735252,0.05036250828650381,jump
05/08/2020, 15:20:30,8.346166,-2.2444677000000004,4.7712884,-0.0048844446,0.028085556,-0.04151778,9.872249466922227,0.05036250828650381,jump
05/08/2020, 15:20:30,8.346166,-2.2444677000000004,4.7712884,-0.009768889000000001,0.026864445,-0.04029667,9.872249466922227,0.049405983558129384,jump
05/08/2020, 15:20:30,8.346166,-2.251646,4.749753,-0.009768889000000001,0.026864445,-0.04029667,9.86349555776426,0.049405983558129384,jump
05/08/2020, 15:20:30,8.346166,-2.251646,4.749753,-0.014653333999999999,0.02198,-0.039075557000000004,9.86349555776426,0.04716714750615678,jump
05/08/2020, 15:20:30,8.312666,-2.2612174,4.752146,-0.014653333999999999,0.02198,-0.039075557000000004,9.838516572206961,0.04716714750615678,jump
05/08/2020, 15:20:31,8.319844,-2.2372892,4.8598228,-0.0036633335999999997,0.009768889000000001,0.0024422223,9.891569559959578,0.010715206988016186,jump
05/08/2020, 15:20:31,8.319844,-2.2372892,4.8598228,-0.0012211112,0.007326666999999999,-0.0012211112,9.891569559959578,0.007527434964840002,jump
05/08/2020, 15:20:31,8.286344999999999,-2.251646,4.8191447,-0.0012211112,0.007326666999999999,-0.0012211112,9.846703581710583,0.007527434964840002,jump
05/08/2020, 15:20:31,8.286344999999999,-2.251646,4.8191447,0.006105555699999999,0.0012211112,0.0012211112,9.846703581710583,0.006345079604060323,jump
05/08/2020, 15:20:31,8.267202000000001,-2.2564318,4.8693943,0.006105555699999999,0.0012211112,0.0012211112,9.85642534435334,0.006345079604060323,jump
05/08/2020, 15:20:31,8.267202000000001,-2.2564318,4.8693943,0.015874445,0.0024422223,0.0,9.85642534435334,0.01606121003671381,jump
05/08/2020, 15:20:31,8.243274000000001,-2.2612174,4.8789654,0.015874445,0.0024422223,0.0,9.84220346053653,0.01606121003671381,jump
05/08/2020, 15:20:31,8.243274000000001,-2.2612174,4.8789654,0.009768889000000001,0.0036633335999999997,-0.0036633335999999997,9.84220346053653,0.011057631933779238,jump
05/08/2020, 15:20:31,8.257631,-2.2588246,4.8454657,0.009768889000000001,0.0036633335999999997,-0.0036633335999999997,9.83713884700166,0.011057631933779238,jump
05/08/2020, 15:20:31,8.257631,-2.2588246,4.8454657,0.01099,0.0024422223,0.0,9.83713884700166,0.011258088519754728,jump
05/08/2020, 15:20:31,8.274381,-2.2229322999999996,4.8454657,0.01099,0.0024422223,0.0,9.84303516948633,0.011258088519754728,jump
05/08/2020, 15:20:31,8.274381,-2.2229322999999996,4.8454657,0.012211111,0.0012211112,-0.0024422223,9.84303516948633,0.012512665716268013,jump
05/08/2020, 15:20:31,8.300702000000001,-2.2205392999999995,4.847859,0.012211111,0.0012211112,-0.0024422223,9.865808946223735,0.012512665716268013,jump
05/08/2020, 15:20:31,8.300702000000001,-2.2205392999999995,4.847859,0.008547778,0.0,-0.0036633335999999997,9.865808946223735,0.009299705689813,jump
05/08/2020, 15:20:31,8.336594,-2.2325034,4.8382874000000005,0.008547778,0.0,-0.0036633335999999997,9.894033016249573,0.009299705689813,jump
05/08/2020, 15:20:31,8.336594,-2.2325034,4.8382874000000005,0.0012211112,0.006105555699999999,-0.006105555699999999,9.894033016249573,0.008720477794441328,jump
05/08/2020, 15:20:31,8.334201,-2.2348964,4.816751999999999,0.0012211112,0.006105555699999999,-0.006105555699999999,9.882042571681948,0.008720477794441328,jump
05/08/2020, 15:20:31,8.334201,-2.2348964,4.816751999999999,0.0048844446,0.007326666999999999,-0.007326666999999999,9.882042571681948,0.011455038363153256,jump
05/08/2020, 15:20:31,8.334201,-2.2420747000000003,4.843073,0.0048844446,0.007326666999999999,-0.007326666999999999,9.896522524358213,0.011455038363153256,jump
05/08/2020, 15:20:31,8.334201,-2.2420747000000003,4.843073,0.0036633335999999997,0.009768889000000001,-0.0048844446,9.896522524358213,0.011519939687235872,jump
05/08/2020, 15:20:32,8.200203,-2.4382862999999997,4.723432,0.03297,-0.007326666999999999,0.014653333999999999,9.772378362230796,0.03681604493876642,jump
05/08/2020, 15:20:32,8.200203,-2.4382862999999997,4.723432,0.05006556,-0.008547778,0.014653333999999999,9.772378362230796,0.052861563162714335,jump
05/08/2020, 15:20:32,8.176275,-2.455036,4.7569313,0.05006556,-0.008547778,0.014653333999999999,9.772772065801167,0.052861563162714335,jump
05/08/2020, 15:20:32,8.176275,-2.455036,4.7569313,0.06960334,-0.015874445,0.006105555699999999,9.772772065801167,0.07165124287526058,jump
05/08/2020, 15:20:32,8.19781,-2.4095723999999996,4.7569313,0.06960334,-0.015874445,0.006105555699999999,9.779495183546018,0.07165124287526058,jump
05/08/2020, 15:20:32,8.19781,-2.4095723999999996,4.7569313,0.07937223,-0.03052778,0.006105555699999999,9.779495183546018,0.08525944875000868,jump
05/08/2020, 15:20:32,8.243274000000001,-2.3952155,4.7976093,0.07937223,-0.03052778,0.006105555699999999,9.83390433614426,0.08525944875000868,jump
05/08/2020, 15:20:32,8.243274000000001,-2.3952155,4.7976093,0.070824444,-0.03052778,0.0012211112,9.83390433614426,0.07713325069979739,jump
05/08/2020, 15:20:32,8.267202000000001,-2.3952155,4.7952166,0.070824444,-0.03052778,0.0012211112,9.852806420204297,0.07713325069979739,jump
05/08/2020, 15:20:32,8.267202000000001,-2.3952155,4.7952166,0.05250778,-0.025643334,0.0012211112,9.852806420204297,0.05844774326437329,jump
05/08/2020, 15:20:32,8.295917,-2.4119651,4.7784667,0.05250778,-0.025643334,0.0012211112,9.872869458274252,0.05844774326437329,jump
05/08/2020, 15:20:32,8.295917,-2.4119651,4.7784667,0.04029667,-0.012211111,0.0048844446,9.872869458274252,0.04238856753340858,jump
05/08/2020, 15:20:32,8.276773,-2.4311078,4.7976093,0.04029667,-0.012211111,0.0048844446,9.870781073569066,0.04238856753340858,jump
05/08/2020, 15:20:32,8.276773,-2.4311078,4.7976093,0.04151778,-0.019537778999999998,0.014653333999999999,9.870781073569066,0.04816815330323911,jump
05/08/2020, 15:20:32,8.248059,-2.5052852999999997,4.84068,0.04151778,-0.019537778999999998,0.014653333999999999,9.886309729294217,0.04816815330323911,jump
05/08/2020, 15:20:32,8.248059,-2.5052852999999997,4.84068,0.064718895,-0.025643334,0.025643334,9.886309729294217,0.07418690222727765,jump
05/08/2020, 15:20:32,8.185846000000002,-2.6368906,4.9459643,0.064718895,-0.025643334,0.025643334,9.920878773251038,0.07418690222727765,jump
05/08/2020, 15:20:32,8.185846000000002,-2.6368906,4.9459643,0.09280445,-0.037854444,0.05250778,9.920878773251038,0.11314897838477285,jump
05/08/2020, 15:20:32,8.19781,-2.7493532000000003,5.0775695,0.09280445,-0.037854444,0.05250778,10.027200325152402,0.11314897838477285,jump
05/08/2020, 15:20:32,8.19781,-2.7493532000000003,5.0775695,0.13554333,-0.045181114,0.08425667,10.027200325152402,0.16586896776708762,jump
05/08/2020, 15:20:33,18.498913,-5.9820566,5.070391000000001,9.292656,-5.228798,-0.69114894,20.092377740735213,10.685105005213149,jump
05/08/2020, 15:20:33,18.498913,-5.9820566,5.070391000000001,8.28646,-4.5083423,-0.30894113,20.092377740735213,9.438538693008336,jump
05/08/2020, 15:20:33,18.228523000000003,-3.4695928,5.7810597,8.28646,-4.5083423,-0.30894113,19.43547750998767,9.438538693008336,jump
05/08/2020, 15:20:33,18.228523000000003,-3.4695928,5.7810597,7.1361737000000005,-3.8391736000000005,0.06716111,19.43547750998767,8.103625092426011,jump
05/08/2020, 15:20:33,17.840885,-0.7752745,6.218946,7.1361737000000005,-3.8391736000000005,0.06716111,18.90961456648929,8.103625092426011,jump
05/08/2020, 15:20:33,17.840885,-0.7752745,6.218946,5.882092500000001,-3.1663412999999996,0.3602278,18.90961456648929,6.689879910466428,jump
05/08/2020, 15:20:33,17.400606,2.0650060000000003,6.666403999999999,5.882092500000001,-3.1663412999999996,0.3602278,18.74796745407059,6.689879910466428,jump
05/08/2020, 15:20:33,17.400606,2.0650060000000003,6.666403999999999,4.5486393,-2.4471068,0.5482789,18.74796745407059,5.194137187155812,jump
05/08/2020, 15:20:33,16.941185,4.5942197,7.200003,4.5486393,-2.4471068,0.5482789,18.97236540209184,5.194137187155812,jump
05/08/2020, 15:20:33,16.941185,4.5942197,7.200003,3.1663412999999996,-1.7632846000000002,0.6703899999999999,18.97236540209184,3.685690230798288,jump
05/08/2020, 15:20:33,16.321444,6.5276203,7.6043899999999995,3.1663412999999996,-1.7632846000000002,0.6703899999999999,19.15270467218485,3.685690230798288,jump
05/08/2020, 15:20:33,16.321444,6.5276203,7.6043899999999995,1.7950335,-1.2272167,0.77418447,19.15270467218485,2.3081524147996904,jump
05/08/2020, 15:20:33,15.524632999999998,7.7647095,7.8053875,1.7950335,-1.2272167,0.77418447,19.032315403345414,2.3081524147996904,jump
05/08/2020, 15:20:33,15.524632999999998,7.7647095,7.8053875,0.49577114,-0.8120389,0.86943114,19.032315403345414,1.2888392838265534,jump
05/08/2020, 15:20:33,14.579469,8.331808,7.9657063,0.49577114,-0.8120389,0.86943114,18.585812116939238,1.2888392838265534,jump
05/08/2020, 15:20:33,14.579469,8.331808,7.9657063,-0.6984756,-0.47379112,0.92193896,18.585812116939238,1.249927049348685,jump
05/08/2020, 15:20:33,13.485949,8.353344,7.9346,-0.6984756,-0.47379112,0.92193896,17.737165478365284,1.249927049348685,jump
05/08/2020, 15:20:33,13.485949,8.353344,7.9346,-1.7742745,-0.24178001,0.92438114,17.737165478365284,2.0151893087627317,jump
05/08/2020, 15:20:33,12.318251,7.982456,7.6977104999999995,-1.7742745,-0.24178001,0.92438114,16.574488030906654,2.0151893087627317,jump
05/08/2020, 15:20:33,12.318251,7.982456,7.6977104999999995,-2.7328467,-0.13676445,0.88286334,16.574488030906654,2.8751701662187408,jump
05/08/2020, 15:20:34,5.6183476,-5.3623157,0.5455635999999999,0.25765446,-0.60933447,-0.15386,7.785749742794445,0.6792254524385452,jump
05/08/2020, 15:20:34,5.9150577,-5.4388857,1.3830514999999999,0.25765446,-0.60933447,-0.15386,8.153662743749097,0.6792254524385452,jump
05/08/2020, 15:20:34,5.9150577,-5.4388857,1.3830514999999999,-0.20026223,-0.58491224,-0.32237336,8.153662743749097,0.6972459213203867,jump
05/08/2020, 15:20:34,6.084948000000001,-6.4414787,2.1750757999999997,-0.20026223,-0.58491224,-0.32237336,9.12415452248826,0.6972459213203867,jump
05/08/2020, 15:20:34,6.084948000000001,-6.4414787,2.1750757999999997,-0.14042778,-0.42250445,-0.38220778,9.12415452248826,0.5867817009414086,jump
05/08/2020, 15:20:34,5.946164,-7.747959599999999,2.7469604,-0.14042778,-0.42250445,-0.38220778,10.145616664324844,0.5867817009414086,jump
05/08/2020, 15:20:34,5.946164,-7.747959599999999,2.7469604,0.3834289,0.11600556,-0.23079000000000002,10.145616664324844,0.46231919594049997,jump
05/08/2020, 15:20:34,5.5704913000000005,-8.599805,3.385844,0.3834289,0.11600556,-0.23079000000000002,10.79124445845205,0.46231919594049997,jump
05/08/2020, 15:20:34,5.5704913000000005,-8.599805,3.385844,0.9182756,0.06349778,-0.07326667,10.79124445845205,0.9233796841379552,jump
05/08/2020, 15:20:34,5.13739,-8.422736,2.2444677000000004,0.9182756,0.06349778,-0.07326667,10.11794926780106,0.9233796841379552,jump
05/08/2020, 15:20:34,5.13739,-8.422736,2.2444677000000004,1.2089001,-0.40174556,-0.06105556,10.11794926780106,1.2753692453235979,jump
05/08/2020, 15:20:34,5.2833524,-7.9704923999999995,1.8496519,1.2089001,-0.40174556,-0.06105556,9.73980354520572,1.2753692453235979,jump
05/08/2020, 15:20:34,5.2833524,-7.9704923999999995,1.8496519,1.1661612,-0.48844448,-0.07815111400000001,9.73980354520572,1.266734976528307,jump
05/08/2020, 15:20:34,5.998806500000001,-7.8604226,1.9453648000000001,1.1661612,-0.48844448,-0.07815111400000001,10.077517903921203,1.266734976528307,jump
05/08/2020, 15:20:34,5.998806500000001,-7.8604226,1.9453648000000001,0.8779789000000001,-0.31138334,-0.026864445,10.077517903921203,0.9319486393740506,jump
05/08/2020, 15:20:34,6.874579400000001,-7.8293157,1.7778671999999998,0.8779789000000001,-0.31138334,-0.026864445,10.569713234009027,0.9319486393740506,jump
05/08/2020, 15:20:34,6.874579400000001,-7.8293157,1.7778671999999998,0.61788225,-0.13676445,0.036633335,10.569713234009027,0.6338966741865698,jump
05/08/2020, 15:20:34,7.6163545,-7.4249287,1.4739788,0.61788225,-0.13676445,0.036633335,10.738297556189082,0.6338966741865698,jump
05/08/2020, 15:20:34,7.6163545,-7.4249287,1.4739788,0.54950005,-0.02075889,-0.0012211112,10.738297556189082,0.5498933765185636,jump
05/08/2020, 15:20:34,8.123632,-7.056433999999999,1.3232309,0.54950005,-0.02075889,-0.0012211112,10.841476226382296,0.5498933765185636,jump
05/08/2020, 15:20:35,7.092326,-6.1304115999999995,2.7684957999999997,0.21980001,-0.06105556,-0.20026223,9.77484557908786,0.3035536000719823,jump
05/08/2020, 15:20:35,7.1449685,-6.180660700000001,2.87378,0.21980001,-0.06105556,-0.20026223,9.874702707193892,0.3035536000719823,jump
05/08/2020, 15:20:35,7.1449685,-6.180660700000001,2.87378,0.21369445,-0.05372889,-0.19904111,9.874702707193892,0.2969334566828859,jump
05/08/2020, 15:20:35,7.190432,-6.209375,2.9886355,0.21369445,-0.05372889,-0.19904111,9.959447398064338,0.2969334566828859,jump
05/08/2020, 15:20:35,7.190432,-6.209375,2.9886355,0.23933779,-0.051286668,-0.19415668,9.959447398064338,0.31242553291136266,jump
05/08/2020, 15:20:35,7.204789,-6.242874,3.0723844,0.23933779,-0.051286668,-0.19415668,10.016087564556347,0.31242553291136266,jump
05/08/2020, 15:20:35,7.204789,-6.242874,3.0723844,0.28329778,-0.05250778,-0.18438779,10.016087564556347,0.3420724396873727,jump
05/08/2020, 15:20:35,7.1856465,-6.242874,3.1106694,0.28329778,-0.05250778,-0.18438779,10.014152868065713,0.3420724396873727,jump
05/08/2020, 15:20:35,7.1856465,-6.242874,3.1106694,0.32359445,-0.058613338,-0.17584,10.014152868065713,0.3729190253717987,jump
05/08/2020, 15:20:35,7.128218700000001,-6.273981,3.0915267,0.32359445,-0.058613338,-0.17584,9.986584878331971,0.3729190253717987,jump
05/08/2020, 15:20:35,7.128218700000001,-6.273981,3.0915267,0.3492378,-0.06838222599999999,-0.15996556,9.986584878331971,0.3901693861116432,jump
05/08/2020, 15:20:35,7.1138616,-6.250053,3.0843484,0.3492378,-0.06838222599999999,-0.15996556,9.959085963143082,0.3901693861116432,jump
05/08/2020, 15:20:35,7.1138616,-6.250053,3.0843484,0.36999667,-0.06960334,-0.14287001,9.959085963143082,0.4026834957589488,jump
05/08/2020, 15:20:35,7.1425757,-6.228517500000001,3.0652057999999998,0.36999667,-0.06960334,-0.14287001,9.960236218922976,0.4026834957589488,jump
05/08/2020, 15:20:35,7.1425757,-6.228517500000001,3.0652057999999998,0.38587109999999997,-0.057392225,-0.13554333,9.960236218922976,0.4129919823813983,jump
05/08/2020, 15:20:35,7.1856465,-6.2237315,3.0939197999999997,0.38587109999999997,-0.057392225,-0.13554333,9.997034038204507,0.4129919823813983,jump
05/08/2020, 15:20:35,7.1856465,-6.2237315,3.0939197999999997,0.40296668,-0.04396,-0.13310112,9.997034038204507,0.42665036471552015,jump
05/08/2020, 15:20:35,7.1976104,-6.135197,3.0675986,0.40296668,-0.04396,-0.13310112,9.94265560289174,0.42665036471552015,jump
05/08/2020, 15:20:35,7.1976104,-6.135197,3.0675986,0.39686114,-0.034191112999999995,-0.12943779,9.94265560289174,0.4188340181328001,jump
05/08/2020, 15:20:35,7.192825,-6.0490556,3.0747771,0.39686114,-0.034191112999999995,-0.12943779,9.888481022317118,0.4188340181328001,jump
05/08/2020, 15:20:36,6.302695,-1.3926228,7.635497,-0.09646778,-0.028085556,-0.09036223,9.998208635216775,0.13513017053625725,jump
05/08/2020, 15:20:36,6.302695,-1.3926228,7.635497,-0.07448778,-0.03297,-0.08059334,9.998208635216775,0.11458942879078332,jump
05/08/2020, 15:20:36,6.3553370000000005,-1.4380864,7.664211,-0.07448778,-0.03297,-0.08059334,10.059747998732307,0.11458942879078332,jump
05/08/2020, 15:20:36,6.3553370000000005,-1.4380864,7.664211,-0.048844445,-0.036633335,-0.07204556,10.059747998732307,0.09443698113266777,jump
05/08/2020, 15:20:36,6.3888364,-1.457229,7.6307116,-0.048844445,-0.036633335,-0.07204556,10.05825559397278,0.09443698113266777,jump
05/08/2020, 15:20:36,6.3888364,-1.457229,7.6307116,-0.039075557000000004,-0.037854444,-0.06105556,10.05825559397278,0.08177798897247296,jump
05/08/2020, 15:20:36,6.410372,-1.4524434,7.6546397,-0.039075557000000004,-0.037854444,-0.06105556,10.089398759968836,0.08177798897247296,jump
05/08/2020, 15:20:36,6.410372,-1.4524434,7.6546397,-0.047623335999999995,-0.034191112999999995,-0.05006556,10.089398759968836,0.07709458155974849,jump
05/08/2020, 15:20:36,6.4295144,-1.402194,7.690532000000001,-0.047623335999999995,-0.034191112999999995,-0.05006556,10.121713750005387,0.07709458155974849,jump
05/08/2020, 15:20:36,6.4295144,-1.402194,7.690532000000001,-0.07326667,-0.028085556,-0.03297,10.121713750005387,0.0851106591544354,jump
05/08/2020, 15:20:36,6.460621400000001,-1.3423735,7.721638700000001,-0.07326667,-0.028085556,-0.03297,10.157031987860897,0.0851106591544354,jump
05/08/2020, 15:20:36,6.460621400000001,-1.3423735,7.721638700000001,-0.12089001,-0.015874445,-0.018316668,10.157031987860897,0.12329595281363295,jump
05/08/2020, 15:20:36,6.513262999999999,-1.2849457,7.769495,-0.12089001,-0.015874445,-0.018316668,10.219527194611777,0.12329595281363295,jump
05/08/2020, 15:20:36,6.513262999999999,-1.2849457,7.769495,-0.16485001,0.007326666999999999,-0.019537778999999998,10.219527194611777,0.16616537282085364,jump
05/08/2020, 15:20:36,6.546762999999999,-1.294517,7.745566999999999,-0.16485001,0.007326666999999999,-0.019537778999999998,10.22397599529097,0.16616537282085364,jump
05/08/2020, 15:20:36,6.546762999999999,-1.294517,7.745566999999999,-0.18072446,0.018316668,-0.014653333999999999,10.22397599529097,0.18224036282405245,jump
05/08/2020, 15:20:36,6.5539412,-1.2969098999999997,7.702496000000001,-0.18072446,0.018316668,-0.014653333999999999,10.196301618550034,0.18224036282405245,jump
05/08/2020, 15:20:36,6.5539412,-1.2969098999999997,7.702496000000001,-0.15508112,0.024422223,-0.017095556,10.196301618550034,0.15792041591133876,jump
05/08/2020, 15:20:36,6.5012989999999995,-1.3351951000000002,7.6043899999999995,-0.15508112,0.024422223,-0.017095556,10.093383118283116,0.15792041591133876,jump
05/08/2020, 15:20:36,6.5012989999999995,-1.3351951000000002,7.6043899999999995,-0.106236674,0.017095556,-0.014653333999999999,10.093383118283116,0.1085965429461538,jump
05/08/2020, 15:20:37,7.781459299999999,0.062213387,4.0390844,-0.7070234000000001,-0.69114894,-0.16485001,8.76750722284514,1.0023694139430608,jump
05/08/2020, 15:20:37,7.8556365999999995,0.13399807,3.8476589,-0.7070234000000001,-0.69114894,-0.16485001,8.748340449523338,1.0023694139430608,jump
05/08/2020, 15:20:37,7.8556365999999995,0.13399807,3.8476589,-0.92193896,-0.7302244999999999,-0.16729222,8.748340449523338,1.1879334711584777,jump
05/08/2020, 15:20:37,7.9346,0.12921242,3.739982,-0.92193896,-0.7302244999999999,-0.16729222,8.772800897356179,1.1879334711584777,jump
05/08/2020, 15:20:37,7.9346,0.12921242,3.739982,-1.1368545,-0.7546467,-0.16118668,8.772800897356179,1.3740127497926289,jump
05/08/2020, 15:20:37,8.087741000000001,0.033499517,3.7878382000000004,-1.1368545,-0.7546467,-0.16118668,8.93086745161641,1.3740127497926289,jump
05/08/2020, 15:20:37,8.087741000000001,0.033499517,3.7878382000000004,-1.3139156,-0.7558678000000001,-0.15630223,8.93086745161641,1.523857184055308,jump
05/08/2020, 15:20:37,8.240881,-0.21296121,3.9361932,-1.3139156,-0.7558678000000001,-0.15630223,9.135156742109745,1.523857184055308,jump
05/08/2020, 15:20:37,8.240881,-0.21296121,3.9361932,-1.4225945,-0.74976224,-0.13676445,9.135156742109745,1.613884498147062,jump
05/08/2020, 15:20:37,8.398808,-0.5072784,4.1252260000000005,-1.4225945,-0.74976224,-0.13676445,9.370954536923428,1.613884498147062,jump
05/08/2020, 15:20:37,8.398808,-0.5072784,4.1252260000000005,-1.4812078000000002,-0.7424356,-0.11844778,9.370954536923428,1.6610891447598104,jump
05/08/2020, 15:20:37,8.482556,-0.7800602,4.3525443,-1.4812078000000002,-0.7424356,-0.11844778,9.56592378895724,1.6610891447598104,jump
05/08/2020, 15:20:37,8.482556,-0.7800602,4.3525443,-1.5215045,-0.7387723,-0.10745778,9.56592378895724,1.6947883804000958,jump
05/08/2020, 15:20:37,8.513663000000001,-0.99302137,4.5296135,-1.5215045,-0.7387723,-0.10745778,9.694635243296352,1.6947883804000958,jump
05/08/2020, 15:20:37,8.513663000000001,-0.99302137,4.5296135,-1.5801178,-0.7448778,-0.09280445,9.694635243296352,1.7493507239626327,jump
05/08/2020, 15:20:37,8.559127,-1.1294123,4.613362,-1.5801178,-0.7448778,-0.09280445,9.78863279807283,1.7493507239626327,jump
05/08/2020, 15:20:37,8.559127,-1.1294123,4.613362,-1.6729223000000002,-0.73999333,-0.07937223,9.78863279807283,1.830999440513713,jump
05/08/2020, 15:20:37,8.599805,-1.1724831,4.6779684999999995,-1.6729223000000002,-0.73999333,-0.07937223,9.859754045520836,1.830999440513713,jump
05/08/2020, 15:20:37,8.599805,-1.1724831,4.6779684999999995,-1.7754956000000002,-0.70336,-0.064718895,9.859754045520836,1.9108345433498175,jump
05/08/2020, 15:20:37,8.690732,-1.2418749,4.814359,-1.7754956000000002,-0.70336,-0.064718895,10.012448775236859,1.9108345433498175,jump
05/08/2020, 15:20:38,5.0105705,-1.7587247,1.5792629999999999,-2.2834778,-4.987018,-6.617201299999999,5.5401264484664425,8.594880675060619,jump
05/08/2020, 15:20:38,5.0105705,-1.7587247,1.5792629999999999,-2.8903701,-5.06639,-6.7979259999999995,5.5401264484664425,8.957362598073388,jump
05/08/2020, 15:20:38,5.9342003,-3.17049,2.6009982000000003,-2.8903701,-5.06639,-6.7979259999999995,7.2133162621427696,8.957362598073388,jump
05/08/2020, 15:20:38,5.9342003,-3.17049,2.6009982000000003,-3.1846577999999996,-5.090812000000001,-6.9481225,7.2133162621427696,9.183399185152947,jump
05/08/2020, 15:20:38,6.838686999999999,-5.211568,3.8500516000000005,-3.1846577999999996,-5.090812000000001,-6.9481225,9.420773667888444,9.183399185152947,jump
05/08/2020, 15:20:38,6.838686999999999,-5.211568,3.8500516000000005,-3.3202012,-5.133551000000001,-6.940796000000001,9.420773667888444,9.249417849046734,jump
05/08/2020, 15:20:38,8.013563000000001,-8.712267,4.972285299999999,-3.3202012,-5.133551000000001,-6.940796000000001,12.839174825139864,9.249417849046734,jump
05/08/2020, 15:20:38,8.013563000000001,-8.712267,4.972285299999999,-3.3055480000000004,-5.106687,-6.8052526,12.839174825139864,9.127779707261624,jump
05/08/2020, 15:20:38,9.260223,-11.861222,5.5250273000000005,-3.3055480000000004,-5.106687,-6.8052526,16.030167100479634,9.127779707261624,jump
05/08/2020, 15:20:38,9.260223,-11.861222,5.5250273000000005,-2.7487211,-5.087149,-6.744197,16.030167100479634,8.883622342891334,jump
05/08/2020, 15:20:38,9.966106,-12.593426,5.678168299999999,-2.7487211,-5.087149,-6.744197,17.03406130132125,8.883622342891334,jump
05/08/2020, 15:20:38,9.966106,-12.593426,5.678168299999999,-1.6924601000000001,-5.2117023,-6.889508999999999,17.03406130132125,8.802931298045499,jump
05/08/2020, 15:20:38,10.090533,-11.674582000000001,5.6733823,-1.6924601000000001,-5.2117023,-6.889508999999999,16.44086316982562,8.802931298045499,jump
05/08/2020, 15:20:38,10.090533,-11.674582000000001,5.6733823,-0.47867557,-5.459588,-7.047032400000001,16.44086316982562,8.92731185857826,jump
05/08/2020, 15:20:38,10.372886,-10.664810000000001,6.056234,-0.47867557,-5.459588,-7.047032400000001,16.06278004777253,8.92731185857826,jump
05/08/2020, 15:20:38,10.372886,-10.664810000000001,6.056234,0.8962956,-5.6610713,-6.9688816,16.06278004777253,9.02310284424748,jump
05/08/2020, 15:20:38,11.179267,-10.317851,6.6520470000000005,0.8962956,-5.6610713,-6.9688816,16.60372822889296,9.02310284424748,jump
05/08/2020, 15:20:38,11.179267,-10.317851,6.6520470000000005,2.4727502,-5.730674700000001,-6.6440660000000005,16.60372822889296,9.115850899160169,jump
05/08/2020, 15:20:38,12.2991085,-10.612167999999999,7.278966400000001,2.4727502,-5.730674700000001,-6.6440660000000005,17.800829715236596,9.115850899160169,jump
05/08/2020, 15:20:38,12.2991085,-10.612167999999999,7.278966400000001,4.148114700000001,-5.73678,-6.2203403,17.800829715236596,9.423912931401317,jump
05/08/2020, 15:20:39,8.161918,-2.7110682,4.536792,1.009859,-1.009859,-0.21980001,9.723644928862539,1.4449713860313265,jump
05/08/2020, 15:20:39,8.161918,-2.7110682,4.536792,0.9817734,-1.0171856,-0.21613668,9.723644928862539,1.430126046249664,jump
05/08/2020, 15:20:39,8.195416999999999,-2.6368906,4.5846480000000005,0.9817734,-1.0171856,-0.21613668,9.75382269804277,1.430126046249664,jump
05/08/2020, 15:20:39,8.195416999999999,-2.6368906,4.5846480000000005,0.9536878000000001,-1.0171856,-0.21735778,9.75382269804277,1.4111808116116744,jump
05/08/2020, 15:20:39,8.240881,-2.5722845000000003,4.666004,0.9536878000000001,-1.0171856,-0.21735778,9.81327475711417,1.4111808116116744,jump
05/08/2020, 15:20:39,8.240881,-2.5722845000000003,4.666004,0.92560226,-1.0061955,-0.21491556,9.81327475711417,1.3839644905749529,jump
05/08/2020, 15:20:39,8.293523,-2.4885356,4.7712884,0.92560226,-1.0061955,-0.21491556,9.886380713039797,1.3839644905749529,jump
05/08/2020, 15:20:39,8.293523,-2.4885356,4.7712884,0.8865267,-0.9842155999999999,-0.21980001,9.886380713039797,1.342729318310544,jump
05/08/2020, 15:20:39,8.346166,-2.4622145,4.8526444,0.8865267,-0.9842155999999999,-0.21980001,9.963389953514401,1.342729318310544,jump
